acc_x,acc_y,angular_z,stamp
-0.06649339650072039,-0.01480862376230104,0.0004652286744365638,1727910608.4903188
-0.05365800099153645,-0.01936342721117794,-0.0001521200617822404,1727910608.493644
-0.07507144842104384,0.010799068944353635,0.00017145826260242338,1727910608.4987993
-0.04394961818071404,-0.038567471384961846,-3.2902394511340836e-05,1727910608.503113
-0.05641945500810598,0.0058767142818643365,-0.00012077512472205543,1727910608.5082388
-0.02663974496844555,0.00469243221295226,-0.00011123975669265229,1727910608.5132017
-0.06710022471450727,-0.003740176984236834,0.0001034447524637501,1727910608.5197635
-0.04502525313674448,-0.002478379021382114,9.049244770705805e-05,1727910608.5231776
-0.06908740229555016,0.0014105777000383954,-7.160928937175049e-05,1727910608.528062
-0.09070667745193017,-0.025529498913245553,0.0004560484145116774,1727910608.5330849
-0.059096758455533194,-0.005651709803670333,4.692468662591935e-06,1727910608.5382926
-0.030910661782396716,0.014474959683121862,0.0002437815322636128,1727910608.543235
-0.03327875644872979,0.0004317943497542977,0.00031394901475073324,1727910608.5481606
-0.0393209084632586,-0.0028731365476563327,-0.00019223177310706427,1727910608.553498
-0.060631621025110743,0.009568562442643928,0.00044147317517548795,1727910608.5580065
-0.07375255094546698,0.0068894982949179884,0.00013691931868055414,1727910608.5632694
-0.02721235994469182,-0.004167911257375808,7.283509513109361e-05,1727910608.5680628
-0.07609211019565681,0.012589338395799283,0.00018419922367166535,1727910608.5729747
-0.056566659029893024,-0.005858886670615756,-0.00030200332540736817,1727910608.5779352
-0.07386530796478515,-0.014435680835521512,0.0003702958653673966,1727910608.5829148
-0.05188487566780881,0.008601898645241482,-5.6173398166918435e-05,1727910608.587857
-0.04950129587891753,-0.00982592405307962,-8.370996499519816e-05,1727910608.5928357
-0.07011627441480764,-0.02351721083511671,-0.00029682566402575524,1727910608.5980413
6.788278469443047,-0.01777379634318885,-0.00019562626001685493,1727910608.6031277
-0.1807263528756233,-0.027812948376222325,-0.00018765465302845853,1727910608.6080728
0.07037243813442673,0.006494447052569494,-0.0007150383734763723,1727910608.6131847
-0.3143592733893401,-0.005685497006083916,-0.000831356826786928,1727910608.6181257
-0.03996520081311365,-0.047257184369444975,-0.001301977627700039,1727910608.6233795
0.13366002431564336,0.0010715460623720204,-0.0019294551112822508,1727910608.628112
-0.2729293496487714,-0.009040570961139333,-0.002316095943992003,1727910608.6329787
6.996882411557513,0.03296036289595053,-0.0028629713760522065,1727910608.6383295
-0.20011168088187337,-0.005609366249248398,-0.0031027956269009268,1727910608.6433623
-0.10485144526985371,-0.02060698977900195,-0.0030972632714568265,1727910608.6482992
-0.036968852150797094,-0.006781436760052483,-0.0032800662876619354,1727910608.6538856
-0.04396096038796737,0.003313685053524709,-0.0037745894936543874,1727910608.6583803
-0.030229017095615103,0.0023053631426717476,-0.0037467606101432,1727910608.6631544
5.628589462717635,0.007186794270650957,-0.0033346832952602305,1727910608.6686735
1.185522963249584,0.005416836093721755,-0.003265012968222462,1727910608.6731262
-0.1530658339087157,-0.001694138205197876,-0.003164534324503239,1727910608.6780741
-0.08854805300606722,0.005736534981079345,-0.0024570133946878185,1727910608.6831694
-0.05647029117026123,-0.03676770203077484,-0.0021735289968854332,1727910608.6880972
-0.08170138432191967,-0.018007517460021525,-0.0018442811723378806,1727910608.6931615
-0.045542546438369566,-0.006089923336346621,-0.002042260975164396,1727910608.6981149
6.730278426209304,-0.005795377524950232,-0.001559252532654671,1727910608.7030222
0.03368033927271974,0.007482522936252439,-0.0014395734599768144,1727910608.7080688
-0.09005094595221522,-0.012839659873324156,-0.0012434354434099268,1727910608.7131295
-0.09767737862184314,-0.005809603907698824,-0.0011237428954229743,1727910608.7187204
-0.058589655603790744,0.00531112048723378,-0.0015719556441491649,1727910608.7236395
-0.05535167712695914,-0.005478891831847431,-0.001288429586648278,1727910608.7284045
-0.026494346551247702,-0.015750638905849115,-0.0014622731905956064,1727910608.733266
8.443221053335478,0.01629327088685487,-0.0018396040283733817,1727910608.7382565
0.019332634713382826,0.0104288991868574,-0.0018950306879378337,1727910608.7431083
-0.10713660369662766,-0.019855358406681456,-0.0019836752986278836,1727910608.7480466
-0.07759800035358821,0.015634650144813515,-0.0023193185917696085,1727910608.753031
-0.03742287774465109,-0.0034956741853068908,-0.0022877424333803513,1727910608.7582355
-0.03138522165338272,0.012972491082169389,-0.0025518953399933804,1727910608.7630355
-0.0654429784022658,0.00336490006774189,-0.0024117883528371182,1727910608.7683067
6.923882574378632,0.004839852831688367,-0.002334665228470344,1727910608.7738857
-0.176176003152101,-0.01777228748973038,-0.00245211604904311,1727910608.7788506
-0.07334453547273706,0.013042994842541828,-0.0023324084767005096,1727910608.784169
-0.027103213727864638,0.007054072488726692,-0.0027839892885385548,1727910608.7887838
-0.062213108292140336,-0.01078039158923126,-0.0024755740670211477,1727910608.7937996
-0.041573204188588946,-0.031793530881177014,-0.002220469309306248,1727910608.7985106
-0.03850523749467082,-0.005192600059296532,-0.0023243655948519512,1727910608.80328
6.922012497251146,-0.013178339284117732,-0.002338166936211051,1727910608.8087418
-0.18036001729085926,-0.009252758078589284,-0.0021879011746249104,1727910608.8137279
-0.026209757627800936,-0.0028218635818617207,-0.002269200119832083,1727910608.8181405
-0.04442551615095067,-0.029097882529188775,-0.0019883837414466673,1727910608.8229916
-0.06040496300901097,-0.019196808489138566,-0.001897987359402484,1727910608.827903
-0.02087250570146589,-0.022943251241553414,-0.0019897257235053476,1727910608.8326907
5.615112212157125,0.003602612705020156,-0.0019004977658219396,1727910608.8381283
1.2048895125226489,-0.015930157603058385,-0.0021982923626069303,1727910608.8428164
-0.12794514691744352,0.001124609612244074,-0.0016086633547901204,1727910608.8481958
-0.06442293051750883,0.01267609283239439,-0.0019332078588140652,1727910608.8531506
-0.02236616052068506,-0.009198344891346969,-0.0018289944636545674,1727910608.8581817
-0.046106876052773776,-0.017613789541125566,-0.002016150014534807,1727910608.8642023
-0.05193922718713323,0.032924200165326926,-0.00200942580232603,1727910608.8689795
6.759674031048595,0.014718383017283475,-0.001771146192439854,1727910608.874155
0.07836666897230257,-0.009652375087467784,-0.0017450085636866093,1727910608.8791811
-0.10648279981602703,0.012872185180109465,-0.0019134109279761386,1727910608.884738
-0.05186575155722768,0.0034080185658404132,-0.002339189589189539,1727910608.8891103
-0.04894363319882389,-0.012387792891362546,-0.0019796524686742905,1727910608.8946521
-0.023148798646101483,-0.006134309207500526,-0.0021460999600719506,1727910608.8991938
-0.01225495128095328,0.01605926992611878,-0.0022699444594358104,1727910608.904967
6.978975876561012,-0.037572487686434376,-0.0024475753424535412,1727910608.9101272
-0.1311829029048643,-0.01080622764687764,-0.0021711137769795394,1727910608.9150617
-0.09306580191894318,-0.008056901975288739,-0.00233262796786688,1727910608.9211526
-0.018433967958626524,0.03397542336623919,-0.00194469193938708,1727910608.9250422
-0.014189556443991357,0.007810063521409398,-0.0020088206641730496,1727910608.9299562
0.008325458141741803,-0.007374017596891734,-0.002308208309074047,1727910608.9347599
-0.02962387533632225,-0.024126942385851086,-0.0021747665841716267,1727910608.9400213
8.693124974253903,0.0033524124743056064,-0.002232752454202974,1727910608.9457061
-0.09857955347756198,-0.005859573846724527,-0.0018785169543251222,1727910608.9497805
-0.039512013327017474,-0.01126219864150158,-0.002027194598305443,1727910608.9552674
0.0017865518084947372,-0.0006223321379956591,-0.0021098322372160674,1727910608.9612827
-0.007343232069420034,0.008255473568274871,-0.0022108286710697867,1727910608.9662502
-0.020994502029021533,-0.012714556870280056,-0.0018432241579031455,1727910608.9710636
-0.027411869782385488,-0.009206956904354397,-0.0018076538159071099,1727910608.9760752
6.923689655912641,0.007905459646374763,-0.0021215608711945126,1727910608.9816778
-0.07530079704290768,0.002019282322374686,-0.0021755598723938296,1727910608.9866877
-0.02804450799793814,0.004567908806494869,-0.002105662641185017,1727910608.9917865
-0.01933845732659527,0.03403901006500722,-0.0021665421665606377,1727910608.9968858
0.017685160920116755,-0.02311488693304312,-0.0021496835341768138,1727910609.002598
-0.019027245322009757,-0.008067709338870766,-0.0022297279630444653,1727910609.0082972
5.663120930170661,0.023714398510705312,-0.0021287998125340503,1727910609.014404
1.226704904900582,0.0038336383450476358,-0.0018316648613412015,1727910609.018727
-0.08947970472704565,-0.027724912975339824,-0.0020998176125645402,1727910609.0235875
-0.041549454761994085,0.01881357397445507,-0.0022859072209678697,1727910609.029567
-8.864316585393238e-05,-0.0006117112191936264,-0.0026709868133325283,1727910609.0344024
-0.01958763639248669,0.0015745476651102676,-0.002165946744384129,1727910609.0394135
0.013545272880564445,-0.029085313740293505,-0.0023738620753595355,1727910609.0438762
6.75506027060417,0.012565322622838573,-0.002137415360683924,1727910609.0487783
0.08495796114450946,0.0015320314422421,-0.0020176772931095217,1727910609.0544543
-0.08054186470450639,-0.00900929881326416,-0.002159377110841563,1727910609.0597095
-0.020930854662606493,-0.013208526631787157,-0.002444599228165192,1727910609.0648534
-0.012655835427530028,0.013364954706796004,-0.002004628200406056,1727910609.0702744
0.04377724027136115,-0.023298511997479808,-0.0023744070049200195,1727910609.0749786
0.015008404520670496,-0.01857862309959022,-0.0017771105870756406,1727910609.0797038
7.014222721997192,-0.015467409977810879,-0.0023307612532237716,1727910609.08449
-0.06696983011261276,-0.011250821771924397,-0.0019005621784786765,1727910609.0894964
-0.06311357999514287,0.025543667923876023,-0.002346660091739235,1727910609.094434
-0.01151115895918981,-0.0048866886204952205,-0.002194670371451348,1727910609.0993865
0.004382434525034947,0.02824778001730987,-0.0021772226670282555,1727910609.1052408
0.029617031611519698,-0.0013644835251692784,-0.0019394952966495398,1727910609.1090379
0.023959898635989144,-0.00636499014481837,-0.0022648891251091344,1727910609.1137645
7.008342783635214,-0.039147860155550336,-0.0020292367072174294,1727910609.1192093
-0.08096924895465023,0.007642100984964177,-0.0021074466865768217,1727910609.1244028
-0.016802083567725303,-0.024688575962191466,-0.0021776335342944798,1727910609.128957
0.004464012944650427,-0.006388223132433288,-0.00232869364395426,1727910609.133653
0.0662510571479993,0.0003093352919408444,-0.002010115825895503,1727910609.1386383
0.0033993775137537013,-0.007393964777497378,-0.0020518503711212596,1727910609.1439056
0.029327014889377213,0.00901072784894106,-0.001919259368232069,1727910609.1486504
7.011681774103485,-0.008793833246227803,-0.0018574789329916664,1727910609.1535525
-0.07183529952516718,0.011811095714520613,-0.0019390037452594604,1727910609.1583734
0.010361580590134449,0.027999105569159924,-0.0023780267053916076,1727910609.1637056
0.03598838308144227,0.05659793655773897,-0.0022731319555141876,1727910609.1682496
0.05333386523101283,0.0037570453199264075,-0.0022187236414595883,1727910609.173142
0.05486120142484012,-0.013494197397401876,-0.0021119797597754825,1727910609.1780164
5.711038082961543,0.010230082282623896,-0.0020766827481235586,1727910609.183695
1.2667074697017475,0.004590558216784987,-0.002197270702669408,1727910609.188006
-0.009271144185585875,-0.005881836326463699,-0.002084723429950193,1727910609.1927977
-0.006483572539455498,-0.01126518381013096,-0.0017117275198456875,1727910609.1982012
0.06157706014295329,-0.01768470597367041,-0.0020721728482991715,1727910609.203212
0.043880902350762675,-0.01744272447907881,-0.0023469646452731136,1727910609.208029
0.046002889457594454,0.01364936072621168,-0.0019739074856402385,1727910609.2133029
6.844151395324006,0.001494314195852606,-0.0023437197021434616,1727910609.217787
0.18212369738457002,0.0019159327368766914,-0.0021550461318973926,1727910609.2232022
-0.005655810696193893,0.03069355753642919,-0.0018953489734125225,1727910609.2282102
0.06447495446308173,-0.00850124310693757,-0.00208593585466843,1727910609.2330527
0.04241786515495737,-0.004879373816213528,-0.0021960694194852657,1727910609.2385242
0.08396980854847613,-0.051308278912018675,-0.0021661016835470984,1727910609.2434063
0.05667584713504681,-0.020611968536827036,-0.0022526303519587627,1727910609.248181
7.054124829261437,0.006827717309361197,-0.0019933615981465335,1727910609.2532213
-0.057846416123828355,0.022953072109377373,-0.002453395898467334,1727910609.2581146
0.009565296578904071,0.0318902133979597,-0.002312365215064009,1727910609.2631395
0.06284118617910882,-0.01469622546133377,-0.0022341261178418573,1727910609.268287
0.05539511048762751,0.00229170011714453,-0.001948306891240097,1727910609.2731233
0.0691004971063607,0.030131178616976634,-0.0017042955296195325,1727910609.2786293
0.0962336831696454,-0.003036800958206528,-0.0023273413431070316,1727910609.2832625
7.081869979078615,-0.021105126658578124,-0.001666704565066605,1727910609.2880461
-0.03403925850145583,-0.005180433664295547,-0.0021548149167631165,1727910609.2942212
0.04594227397112318,0.005742454887754669,-0.0017586682131532953,1727910609.2981153
0.08223809260930623,-0.0015601947141358895,-0.0019141726596517963,1727910609.30301
0.09318735479674034,-0.023462673179507718,-0.0018368638798698835,1727910609.308328
0.11724141441562314,0.001629059486903257,-0.002024650651463468,1727910609.3131678
0.11799527976631023,-0.0032620220168682983,-0.0017339668695286609,1727910609.3178496
7.058740301064964,0.030038584389558073,-0.00226727167857992,1727910609.32354
0.032852429870882896,-0.009606525427885638,-0.002097582373155308,1727910609.3289754
0.08797551442926796,0.019736732473433133,-0.0021341565253942558,1727910609.3338745
0.08027288298804736,-0.02247392516628305,-0.0019735362677250315,1727910609.3386927
0.12734223348459628,-0.018178607575605375,-0.002130135507491119,1727910609.3438082
0.15068123819635434,0.013136106135939378,-0.002383532516665414,1727910609.348751
5.792087028209404,0.007108979106591247,-0.002048126987174249,1727910609.3546386
1.3470178445266694,0.0034731176608185695,-0.001859826768916586,1727910609.3589
0.032301784839301656,-0.003395340858654317,-0.0023255131910962243,1727910609.36382
0.08451279100090597,0.037822099364447206,-0.0021727712328393537,1727910609.3687603
0.12948796963611978,0.010538579885881545,-0.002249656943924798,1727910609.374322
0.11479081240078176,-0.005433608495799014,-0.0021901177875992953,1727910609.3794951
0.140215214803219,0.013624326113870221,-0.0022080996621144356,1727910609.3848808
6.924900957083723,-0.01075094373539219,-0.002152964720105872,1727910609.3926263
0.213393950700625,-0.0004050351600245294,-0.002325981697258169,1727910609.3951628
0.09026550715726919,-0.004185958753669818,-0.0019650702061968536,1727910609.40013
0.11286544497630403,0.010064270314900769,-0.002404650836136166,1727910609.4050338
0.12130554774088767,0.01204073876841965,-0.002479878216046766,1727910609.4099991
0.1331481344622974,-0.04400868592481724,-0.0023537394384826257,1727910609.4148324
0.15279392225551428,0.001198034389178283,-0.0019680490985972926,1727910609.4197497
7.119397220435319,0.023551450774525126,-0.0017458026860711203,1727910609.424573
0.05671251083890255,0.039879524322173725,-0.002295897869588305,1727910609.4293878
0.08174261698377146,0.014076958074977886,-0.0020707777455477197,1727910609.4342945
0.14080729690679034,0.022483333881048343,-0.0022565864940683814,1727910609.4392977
0.18852178907699388,0.0061480760924317816,-0.002269837465060489,1727910609.4445317
0.17942193056147648,-0.0010869067114267633,-0.0023659340508832742,1727910609.4492917
0.1462612246556451,0.017283001474378275,-0.002078363159270406,1727910609.454442
7.14134700444764,-0.020727121270529142,-0.002235735850535895,1727910609.459086
0.04241102892248288,0.022474519781405383,-0.0025379798689919297,1727910609.4641042
0.11667945046863135,-0.008578989722302489,-0.0022369190961926103,1727910609.4689884
0.16203252781210925,-0.010079312099851674,-0.0023256230056919605,1727910609.4741437
0.1836457609245322,0.005731358820152103,-0.002509400783000514,1727910609.4789262
0.19324888041754093,-0.000550549795236483,-0.002035060630222242,1727910609.4842577
0.18994653478152976,0.005842900561593176,-0.00226964792818907,1727910609.4890103
7.064040610418776,0.009996207461883535,-0.002065328239491557,1727910609.4944148
0.08862488809977019,0.007925127671931452,-0.0023496630666549265,1727910609.49963
0.1251545002663637,-0.000948059868899319,-0.002255703150688793,1727910609.5046396
0.1380907905396443,0.01794869461308063,-0.0024918154710111265,1727910609.5096118
0.18148117829151306,0.003816378709320948,-0.002332345434571553,1727910609.5144322
0.21042984083772268,-0.003631596348594791,-0.002394870300511172,1727910609.519847
3.1434610071029554,3.2988494271082684e-05,0.00024960442608900507,1727910609.526995
0.8579646452045313,0.009149023835552876,0.02057938017006038,1727910609.5296488
0.11959029601400634,0.04865191955193164,0.05104613058392653,1727910609.5346007
0.15570801706891957,0.06716444711748555,0.08917214264477526,1727910609.5393994
0.1689895696139514,0.09994351625786682,0.13056364785683638,1727910609.5442846
0.22286589828753295,0.14561555796915487,0.17304688694912335,1727910609.5490162
0.17168556365447443,0.18913462472816278,0.21442080043228337,1727910609.5540721
3.5169943987146226,0.23777978941333894,0.2570142223740748,1727910609.5589404
0.2194342708008288,0.31598777011502804,0.31180238921325965,1727910609.563988
0.15476322435949505,0.3177148370878619,0.3688302101602282,1727910609.568997
0.19133120287497504,0.4011889234959666,0.42510427700970704,1727910609.5743077
0.25596537930315916,0.4371035209159605,0.47497744147788407,1727910609.579323
0.23147028055140273,0.48153120664323207,0.5176189163267343,1727910609.5841043
0.23190884342748855,0.4904096224218414,0.5501522372126764,1727910609.5895157
3.7169189033253183,0.5677817398866153,0.5811790913714288,1727910609.594359
0.14676837815268018,0.5941005434826815,0.6162976656871421,1727910609.6003227
0.23634007552552672,0.6198878268649157,0.649400842077011,1727910609.6050563
0.19216146856968683,0.6999384073478562,0.673260542960358,1727910609.61031
0.2227900575777839,0.6672092003426586,0.7020334860134215,1727910609.6152968
0.2527279911866957,0.687105401803634,0.718527155643443,1727910609.620126
0.23412442447561024,0.7331040328963278,0.7281731038055529,1727910609.6251996
3.7705790097617555,0.7128145059541063,0.7450101967738584,1727910609.6303988
0.14217798459478165,0.7592304816760959,0.7683008378018525,1727910609.6354327
0.2356642662454669,0.8079627884361866,0.7943003409206246,1727910609.6402707
0.2244477465725916,0.8171921211092957,0.8200780389422531,1727910609.6459644
0.23790869237071519,0.8204023527158343,0.846213775045707,1727910609.6504579
0.287965927780277,0.8562204572186958,0.8686611785112296,1727910609.6555483
0.2533797848196221,0.8612975583322671,0.8878902448138591,1727910609.6602535
2.9047176772407415,0.9045624258352298,0.9169777916462286,1727910609.6653864
0.22263050006880625,0.9366817284607235,0.9491699430599928,1727910609.6702008
0.23402971488040072,0.9760408356785041,0.982620165318955,1727910609.6751468
0.2347024374568175,1.0055207513524356,1.0138479978487167,1727910609.6800852
0.25739817944773463,1.0235492527706842,1.0425432321639525,1727910609.6849189
0.24965122892302538,1.0696205993553571,1.066736506480061,1727910609.68982
0.2391059783735756,1.074828642996185,1.0833688069206837,1727910609.6956651
0.2663075935542885,1.0909556095669348,1.0947496867918916,1727910609.6998105
0.23199822098253692,1.0735719662400163,1.0984725210125736,1727910609.7047012
0.27565855858833066,1.0913289174185214,1.0951743995536727,1727910609.7108464
0.28323801570223706,1.0935531130474188,1.0863552429331222,1727910609.714775
0.2711127552087319,1.0715162113743655,1.0731287048346347,1727910609.7198856
0.2722796476930088,1.0217906498231601,1.0555559002309725,1727910609.7272794
0.2799449920301784,1.0266230945627217,1.036337175232166,1727910609.7309294
0.29493956650279973,1.0091191789660847,1.0159362841017363,1727910609.7350671
0.2925179423615499,0.9891293496627149,0.9963908491363268,1727910609.7403634
0.3034895858131932,0.9722123280455478,0.9788941891126277,1727910609.7451298
0.30058963662941907,0.9236290683904,0.9637256326722181,1727910609.7505105
0.29364781260275524,0.9646430412667099,0.9516788058467764,1727910609.7553163
0.30447258315361725,0.8994283155281394,0.9445520865560498,1727910609.760101
0.3151572720188266,0.9281492570526735,0.940742577617812,1727910609.7650137
0.303808142310207,0.9181173649377877,0.9415186407481451,1727910609.7699833
0.3181377353361051,0.9171165388621174,0.9456409935507734,1727910609.7749903
0.34249550871684076,0.9265152438241147,0.9529010896668364,1727910609.7799268
0.30283101925724704,0.9529158408778452,0.9624557665694323,1727910609.785092
0.29622315349279804,0.9461629114952868,0.9738963548631189,1727910609.790729
0.28839076076836617,0.9681553258809289,0.9859383132637027,1727910609.794945
0.3304624198856987,1.0006994868315786,0.9976193757415757,1727910609.799965
0.18054133286338386,1.061544895576983,1.0088877427263347,1727910609.8053691
0.34201063124288344,0.9540011957389168,1.0215030322386185,1727910609.810062
0.3194407413337309,1.006161559237735,1.034915416993108,1727910609.815027
0.3160719381913883,0.9992900408633115,1.0466432578921627,1727910609.819925
0.3435631682285351,1.02402860983874,1.0583078049484802,1727910609.82505
0.3702514040684162,1.0271437590081776,1.067853151929868,1727910609.8297367
0.4057177680841133,1.0502942882985289,1.0757804753906566,1727910609.834871
0.4067530938057148,1.0635765269650679,1.0804061472940027,1727910609.8398907
-0.026713711121261315,1.1732969275052454,1.0843028356521673,1727910609.8447752
0.15071229353386548,1.172624318620881,1.090586885534278,1727910609.8498473
0.2664468303904852,1.1035161663403121,1.097681955245589,1727910609.855054
0.3087053318245681,1.0701161219439763,1.1049726808093412,1727910609.860058
0.2867966219488088,1.1037392626964204,1.1121356231715234,1727910609.8656478
0.24760764489566145,1.1555793840674518,1.1182954376100054,1727910609.8703668
0.26664390775311547,1.1193110616579502,1.1247362015390623,1727910609.8751118
0.2398174116608643,1.1971190347414935,1.1302135469434886,1727910609.8803413
0.25910259165604377,1.1281815452736437,1.13523691438191,1727910609.885098
0.22906508652766455,1.1809440367517707,1.1395086844488789,1727910609.890546
0.2927428167053967,1.1680136981098432,1.1435801246430226,1727910609.8950012
0.2572060443384765,1.16299602913167,1.147348014774415,1727910609.8999743
0.24870952415526013,1.2217127769288687,1.1509371119613827,1727910609.9052749
0.27275804437391515,1.1922894236400836,1.154159796831969,1727910609.9103472
0.22497481244143597,1.2080907601798239,1.1574576910498011,1727910609.9151933
0.26620611031608027,1.138076673076894,1.1598810333402065,1727910609.9200847
0.27295599412078464,1.2006566789597777,1.1622914993235696,1727910609.925729
0.252871763209016,1.1958559949902376,1.164753680409314,1727910609.9300313
0.26609482075064367,1.1983051318926092,1.1667764618973713,1727910609.9349258
0.2708627420228643,1.1964617937208377,1.1683609245223212,1727910609.9400358
0.2703487820050329,1.194889755440065,1.17031381001376,1727910609.9450927
0.2513442095553844,1.1699993575548542,1.1720022622598485,1727910609.9499314
0.2766341050188496,1.2144403224097342,1.173321058341053,1727910609.9547987
0.2520993286716188,1.2082260328829046,1.1741886423023857,1727910609.9598753
0.30263158956034797,1.1857048491335824,1.1749024063758597,1727910609.9650135
0.26963237623946334,1.1871279253084148,1.1759638114602047,1727910609.9699337
0.3025628771446492,1.1947795259596323,1.176620960182271,1727910609.9749756
0.2814730047752938,1.2416083147631092,1.1777443957961222,1727910609.9798121
0.26322210219730074,1.1893354357554577,1.1779270413462934,1727910609.9848385
0.28933317271467784,1.2299962008707763,1.1784566307069253,1727910609.9896927
0.3223044414304346,1.1866043930943782,1.1786932933912786,1727910609.9950497
0.2867413131347946,1.1793165982810985,1.1791480655963316,1727910610.000009
0.2988953786287595,1.2028454745690598,1.179052046096752,1727910610.0049953
0.29278968096131497,1.2231398431554217,1.1789778562930737,1727910610.0099888
0.2925784064098033,1.2016653414523437,1.1793696182953248,1727910610.0153522
0.30243051968676365,1.2115258707118988,1.1793997065398014,1727910610.0202193
0.27301571981516465,1.2207453212008408,1.1791121152821087,1727910610.0252857
0.30995175271126607,1.2537263398579523,1.1789462063968605,1727910610.0303743
0.29283557323517573,1.2467333528565865,1.1790119767299934,1727910610.0360656
0.28569636967737355,1.2080737867151825,1.178575569330421,1727910610.0406516
0.260908531230934,1.2029519199227592,1.1782306742779511,1727910610.0457716
0.2933194047758071,1.219380742375621,1.177827603142608,1727910610.0507762
0.3188227081267535,1.1578587976261465,1.1779374677259231,1727910610.055712
0.27280935497381636,1.242615629709721,1.1770204135080506,1727910610.0606842
0.30583817680712483,1.2057979246413346,1.1766862477896736,1727910610.0656831
0.30629320869849214,1.227493367645777,1.1759047956970075,1727910610.0710194
0.289490385198637,1.218486348056232,1.1754457587940184,1727910610.0756772
0.2973800761265948,1.2192747943633504,1.1746364301106158,1727910610.0808327
0.32138193556503697,1.2185542912222038,1.1741487899729217,1727910610.085721
0.3407933172786454,1.2189649726223322,1.1735393583315152,1727910610.091156
0.30390076607825134,1.2309397366711743,1.1725369321412675,1727910610.0958996
0.30512666747307604,1.2365222792501727,1.1726709404735547,1727910610.100743
0.2914868601965692,1.2410705751502573,1.1714541218047076,1727910610.1058936
0.3146760911476967,1.1991754960512098,1.1707866008523868,1727910610.1110377
0.30107117485870805,1.1969621047038272,1.1697981146248497,1727910610.1160069
0.31066972282906485,1.1912738193616443,1.1691120664209373,1727910610.1211915
0.2912394763909094,1.2262431260196665,1.1678497530184422,1727910610.127198
0.2927379077609181,1.1823356619040355,1.1670759904208878,1727910610.1322463
0.3029486410153763,1.2573056983146433,1.1660891493675403,1727910610.1371593
0.28239466810029895,1.2223474405831296,1.1650782574287875,1727910610.1423259
0.28629589239858233,1.2508861619169456,1.1638803163337372,1727910610.1474202
0.2936377662651785,1.2811177701699898,1.1633500937067967,1727910610.1519973
0.31864017536078215,1.1054501397026049,1.1621123206127892,1727910610.15704
0.26313184065473455,1.2434743764127252,1.1608249960668706,1727910610.162081
0.30127486187569463,1.2835998430052102,1.1597463376136075,1727910610.166992
0.2940913459993224,1.1276076413635894,1.15844805922503,1727910610.1718898
0.294182989103151,1.2473185261389583,1.1571251533106612,1727910610.1768515
0.32819779844431246,1.1228054834931465,1.1563884033102534,1727910610.1816108
0.3337760488542083,1.1955453668346898,1.1550832685308938,1727910610.1864967
0.3200726518063555,1.1870935127060527,1.1542252768361565,1727910610.1912775
0.2949602716628971,1.2801127278883002,1.1528391685499,1727910610.196081
0.30494702978969035,1.172125322425471,1.1517139326036718,1727910610.2010367
0.2936372907859703,1.2264689284749146,1.1512444743605585,1727910610.20682
0.31411516920253446,1.1714836746959514,1.1497812890239758,1727910610.2107651
0.30967173006924864,1.2019208846715055,1.1491779461899603,1727910610.2156863
0.2900246188562798,1.2184145152611947,1.1478978631829748,1727910610.220709
0.3005679585206399,1.2903008921588888,1.1469425357416054,1727910610.2258801
0.2775788546580139,1.294664192956349,1.145600649311952,1727910610.230708
0.28357817855557726,1.3786147024624271,1.144069779702383,1727910610.2356641
0.27299873805451247,1.420591862770949,1.1427398454870632,1727910610.2413383
0.261962398480067,1.4739124892975064,1.1410383024725084,1727910610.2462397
0.27571073154003467,1.4885144624250028,1.1391409283275755,1727910610.2511628
0.27255148539810803,1.521816932401393,1.1373520333306406,1727910610.2561965
0.23389781955592343,1.5946872694536132,1.1355111641894426,1727910610.2613163
0.2660362960999809,1.6600540066819023,1.1331698837620672,1727910610.267253
0.27585286423309263,1.5547676626889018,1.1314070488601193,1727910610.272858
0.29650416669237983,1.6237029776602985,1.131265525203334,1727910610.2784295
0.24978437160888758,1.7482850350384724,1.1305113568981169,1727910610.283911
-0.2584751710103578,1.944294031315126,1.1306018383518968,1727910610.2894251
0.05072310509091821,1.9741318736758389,1.133301902378921,1727910610.294184
0.8774126764710106,1.5279012426120027,1.1309987921398672,1727910610.2989254
-0.3427904441049074,2.2579978395056393,1.1327906677921096,1727910610.304176
0.2080165315204225,1.560233867853441,1.1351967316139873,1727910610.3091302
1.1053770554200282,0.6662289478526751,1.1330125615671829,1727910610.3141758
-0.34263387369174003,1.8794703581282637,1.1355608060832274,1727910610.3192496
0.3577485007223584,1.2111430330996447,1.1382303433980872,1727910610.3239775
0.23826318052090034,1.3121285808451768,1.1411606612367713,1727910610.3295121
0.32503313386851423,1.2146634498319038,1.143882693661712,1727910610.3340979
0.3675277648683117,1.2871069061116533,1.1464363430444409,1727910610.3390968
0.3749739708140117,1.1200613073058594,1.149281686406402,1727910610.3437738
0.3057209080546846,1.2741681176462336,1.1521649233630864,1727910610.3486943
0.2816800045575075,1.1831497630258891,1.1549406995789668,1727910610.3541305
0.2854826241269143,1.2828918794226831,1.1573709075267626,1727910610.3590763
0.2701145304268613,1.212829794946637,1.1598294087411372,1727910610.3651748
0.281304968837276,1.2321741437129632,1.1614829780071279,1727910610.3700607
0.2939919078286082,1.2806735667091653,1.1640844295943131,1727910610.3747776
0.268767026370738,1.2224634567350046,1.1664165978646401,1727910610.3808138
0.2704905955881405,1.256983593019304,1.1681793440879877,1727910610.3851335
0.2820069086358916,1.230583534968121,1.1700765233920065,1727910610.389796
0.2617755060362143,1.2864683599256694,1.1721059098001714,1727910610.3945708
0.26719319628990507,1.2358445922611323,1.1742544833893076,1727910610.4000366
0.3004177537438108,1.2717855847774011,1.1762198216664315,1727910610.4058468
0.258050906994377,1.249988010142629,1.178086446667007,1727910610.4109783
0.27743114455061124,1.246690282357883,1.180430651827736,1727910610.4157512
0.2803265135967675,1.2283080609646184,1.1818555585134338,1727910610.4206448
0.257559029918871,1.264662904123696,1.1837187092509958,1727910610.4257557
0.2846455015905578,1.3020314767421546,1.184847951013919,1727910610.4304564
0.2515448400346794,1.2471559369210172,1.1865424132321896,1727910610.4352634
0.2558397080820851,1.2928009545232912,1.18852854427186,1727910610.4407759
0.24755155905184204,1.3080675145879288,1.1888260160434005,1727910610.4447892
0.25088227854954925,1.284511292519801,1.1899088790340226,1727910610.450072
0.2333347466813823,1.246071208866734,1.1907215189844755,1727910610.4549108
0.2826115366772965,1.271658556864158,1.1919546469224465,1727910610.4596303
0.27050501808900057,1.336010081584274,1.1920958498235834,1727910610.4653018
0.25928924157123706,1.257659865269618,1.1926061295541208,1727910610.4699354
0.2452496038087661,1.1595650988225144,1.1930246117455503,1727910610.47465
0.2601279873572458,1.2519412420515996,1.1931881134008429,1727910610.4795535
1.088111983590926,0.8971229462293445,1.1924761355987668,1727910610.4849021
-0.547409298472466,1.546227263612281,1.1904118846897602,1727910610.4898286
0.3687084855897606,1.2014760142467535,1.1909576055389868,1727910610.4947774
1.0433586499072929,0.8960702819015774,1.188872216197953,1727910610.4995484
-0.6350012223798172,1.6206546389094003,1.1871020556300491,1727910610.5040932
0.254816555041358,1.2698247111183283,1.1879523595343675,1727910610.5090742
1.1590505297707625,0.8361342476719202,1.1829626962344788,1727910610.514046
-0.5094947202514573,1.5083369275367122,1.1790582438640165,1727910610.5187416
0.10815968531118399,1.3479910756645175,1.179415148614704,1727910610.5237741
0.9971669277287657,0.8269790575186259,1.174948963153461,1727910610.5294557
0.32845115863079555,1.0909055559102592,1.1698917639875006,1727910610.5343654
-0.47168997299964543,1.7337237651062145,1.167854273632938,1727910610.5401254
1.0652932489426186,0.9357078028043098,1.165313321834292,1727910610.5446582
0.13276668970270197,1.0013721449328012,1.1607117340166941,1727910610.5501747
0.363251577954834,1.1848915355043652,1.1569591923627427,1727910610.554492
0.33079922468819856,1.2210835084789462,1.1543479529588823,1727910610.5603106
0.25869839014144624,1.2458956495798497,1.1520126122660994,1727910610.5655386
0.2131710502832742,1.1690179440064032,1.1490615639254784,1727910610.571231
0.18411713142340375,1.2531203965760098,1.1470604807254707,1727910610.5758853
0.17416464659450367,1.1537137488176994,1.1441967306838603,1727910610.5817838
0.1697270773878033,1.1505060009182717,1.1411567320575016,1727910610.5866845
0.22414941310668457,1.1156318964950978,1.137944916249875,1727910610.5914109
0.2160933109267134,1.1271991839340654,1.1349050343665112,1727910610.5967438
0.2555821386749095,1.1493393597002204,1.1325013619299908,1727910610.602514
0.254419480375223,1.1651702766423309,1.1298685539212567,1727910610.6087906
0.28481581853323407,1.2010833225079725,1.1270930626073052,1727910610.6139078
0.27164956695341635,1.1866664145966903,1.1250936199099573,1727910610.6185296
0.24690676967581077,1.1634945993814831,1.123311954907843,1727910610.623809
0.2896007430542967,1.1757387450157364,1.1215702934362617,1727910610.6288114
0.2633861814727211,1.1521561411210859,1.1193615673835298,1727910610.6343572
0.24290403654027842,1.2000074862845744,1.1180836843183497,1727910610.6392157
0.27667028680330713,1.1988183842278526,1.116929140065035,1727910610.6440833
0.2566735791839185,1.1691615874181078,1.11612960163045,1727910610.6490128
0.3081504569525122,1.191027588755711,1.115011315101905,1727910610.6539474
0.26745985054821647,1.1730896634117398,1.113278159085398,1727910610.6586928
0.2506769124271462,1.1895854390873704,1.11259247688969,1727910610.6633976
0.23753305692728546,1.1641381081389808,1.1116950568908837,1727910610.6682694
0.23539627068698488,1.1800349824879037,1.111093278968579,1727910610.6742811
0.22924330830183237,1.1990054404607804,1.1103216712388075,1727910610.6792755
0.24041310910654323,1.1701838419776187,1.1097203589039764,1727910610.6839945
0.21991439609694705,1.1479507601745385,1.108676438432062,1727910610.6890829
0.23809549239878203,1.1840713682253863,1.1076006863826633,1727910610.695231
0.22650077170797442,1.1670067575041105,1.106718333576906,1727910610.699891
0.2129288357527223,1.162981198404098,1.1059755036791623,1727910610.7048748
0.18038376142736717,1.1422541821581036,1.1046950626622494,1727910610.709549
0.16480075688411183,1.127062454515071,1.1035993717818426,1727910610.7140906
0.20971534541680287,1.1653079500280215,1.102315604805414,1727910610.71983
0.22312727910864658,1.1555140140799676,1.10124562963374,1727910610.7251978
0.19423181976612225,1.1848483240771437,1.099284078718481,1727910610.7290566
0.1857257381150048,1.1608399350119774,1.0982977268873702,1727910610.7350686
0.2158792588180328,1.1699677752902011,1.0967359688200642,1727910610.7388813
0.2163964897715141,1.1536507272370051,1.0955476763983103,1727910610.7437317
0.1823703027376225,1.141119135054818,1.0937332857167217,1727910610.7482903
0.15667880429513562,1.1900782965406613,1.0921783663404823,1727910610.7537537
0.19149800441739948,1.1724627932766212,1.0906075985399533,1727910610.7586873
0.21202042312820468,1.1472080638993747,1.0894359135201317,1727910610.7636318
0.18445661769115088,1.1638100379144998,1.0874503140547067,1727910610.768411
0.15543321481081332,1.080681726523861,1.0877608419159055,1727910610.773273
0.09353288365758508,1.2075792155884568,1.0847948848503337,1727910610.7781985
-0.44526431689590174,1.3157641243240334,1.0845916252959698,1727910610.7828703
0.8471848497447537,1.02223212988725,1.0830483901517376,1727910610.787714
0.14268871496214194,1.188401470258931,1.080752514925835,1727910610.7933788
-0.4797186052966741,1.2240329010843471,1.0823641958996932,1727910610.7989037
0.8947281334988866,1.0635776058131845,1.0792920418148415,1727910610.8035815
-0.5230541599889473,1.32793379382869,1.0789403581384154,1727910610.808803
0.9129770154360384,1.0160957434730913,1.0792725496100022,1727910610.813601
0.14892913962463622,1.2084772953680945,1.0759661799973153,1727910610.8187802
-0.507859750297949,1.2477028293066206,1.076404747228897,1727910610.8239455
0.20262237867305766,1.1236516412495317,1.0777416715140107,1727910610.828849
0.8892821685312012,1.1150461528576558,1.073745081005632,1727910610.8339407
-0.5742893292371981,1.2658912906331046,1.0739410642487852,1727910610.8385973
0.18364810031945306,1.1268394001249706,1.0749695627091724,1727910610.8435268
0.948060693991347,1.1157390766816437,1.0722775533328746,1727910610.8487053
-0.6867323652978491,1.290175346426141,1.071368219786425,1727910610.8539891
0.21424037361771034,1.1424863386077124,1.072509447607959,1727910610.8581104
0.8769204562440038,1.020583508634181,1.0723249084780837,1727910610.8630233
-0.6191463287950689,1.3132926848858966,1.0699889256500255,1727910610.8679042
0.18227148073807936,1.1509708316384215,1.071339588607988,1727910610.8727913
0.8152120419968003,1.0160863697317226,1.0708972154385616,1727910610.8776064
-0.5686785180708515,1.2569684337490357,1.0694617717312072,1727910610.88265
0.16417428204624257,1.1671905084665515,1.0704557515988435,1727910610.8874516
0.13818774116066063,1.1070897610775197,1.0710490353399271,1727910610.8929358
0.27186595570163785,1.2164145493855827,1.0679569391838546,1727910610.8972495
0.04416508416242636,1.1746544815476208,1.0682244560380365,1727910610.9025834
0.1496091445964009,1.1245222950566862,1.0688377438876244,1727910610.9072106
0.25075505535113163,1.2003189233554983,1.065536397320102,1727910610.9120448
-0.012409793089924596,1.1449737753121263,1.0660110742831583,1727910610.9170148
0.9332493770206948,1.0917224765495397,1.0650624540202724,1727910610.9219942
-0.6602808381788983,1.22378649729677,1.0625398053095592,1727910610.927457
0.15658718787718262,1.1520405350078102,1.0629547985878087,1727910610.9337163
0.9342394228150315,1.109991696678657,1.060095619114307,1727910610.937278
-0.7495221374631844,1.217766214607328,1.058293995457268,1727910610.943653
0.19370192593225477,1.1739384762574643,1.0586933312482187,1727910610.9484096
0.8536760320709408,1.1770537503922984,1.0548837627704772,1727910610.9531093
-0.6697969312373082,1.1652394943844262,1.0534852299082262,1727910610.9581685
0.176953451273346,1.1299596341118303,1.0540517849246704,1727910610.9629812
0.8556212880338855,1.130487567687502,1.0492414142750839,1727910610.967602
-0.6618353822627473,1.1816606316987475,1.048640868789692,1727910610.9726703
0.9017372819516063,1.1304899667953217,1.0468674914607699,1727910610.9773934
-0.5428732714197769,1.1907921122002194,1.0439337018209658,1727910610.9822252
-0.005941780605114768,1.1331677940872011,1.0440190964134537,1727910610.9871695
0.8090268031328157,1.1165903115478943,1.0404809277873346,1727910610.9921744
-0.49493141255757755,1.1356418094225316,1.037959542882258,1727910610.9984226
0.1294254414880506,1.1398248405067712,1.0383847431131397,1727910611.002127
0.7671889437661817,1.1146380304704728,1.0349535095703355,1727910611.0071301
0.12128152554248432,1.1791659793036389,1.031793885445249,1727910611.012348
-0.605097768479228,1.1371548038389852,1.0303913894768826,1727910611.0170205
0.7726040040097859,1.0688390026899621,1.0281669542594083,1727910611.022759
0.163500934928774,1.1881135275996588,1.025185658292958,1727910611.027104
-0.5599908668304051,1.1504238564466585,1.0229798162751047,1727910611.0320969
0.7924904434517678,1.1190966458087739,1.0225404702669192,1727910611.0372112
0.07932711811210574,1.1434961145405593,1.0203413921437505,1727910611.0427325
-0.533456490671655,1.1126505292300144,1.0192471427109355,1727910611.0483246
0.6179184241152951,1.1149890396176623,1.0196054308053024,1727910611.0538955
0.23815432601709496,1.1418151573461484,1.0172356764179125,1727910611.058498
-0.5706947184489398,1.1525885649186196,1.0168655518085639,1727910611.0634272
0.06381350747733114,1.1111729070863272,1.0180747363533065,1727910611.0677323
0.7218497833990635,1.1746850265265696,1.0168199607768627,1727910611.0727894
-0.5475145889107476,1.131561715669449,1.0160155092087422,1727910611.0786684
0.06555415309271122,1.1133915124053018,1.0178761588540757,1727910611.0836644
0.6530540302166863,1.1293084508176552,1.0178367640231605,1727910611.0882964
-0.4316637537165448,1.1457470798373108,1.0169460852491978,1727910611.093837
0.05388538172454099,1.1350907169297466,1.0183549335345006,1727910611.0986946
0.6267540491640742,1.1037037218521435,1.0192937390425487,1727910611.1040967
-0.32633076370672265,1.1487722463401644,1.0190195602350791,1727910611.109167
-0.04012543878994121,1.10268393534912,1.0201119099443043,1727910611.1139207
0.5704311241081514,1.0774744533632956,1.0206764877658105,1727910611.1191263
-0.284203727828794,1.1619215608003481,1.0198956650385327,1727910611.1239207
-0.05912350114944605,1.1754554377817896,1.0211388327539384,1727910611.129193
0.47145941668114305,1.134595366442116,1.0224212657026153,1727910611.1356995
0.2634943440592226,1.0681336999390578,1.0208350586300998,1727910611.1395772
-0.5849476795264461,1.1742725274198764,1.0215330902748412,1727910611.144356
0.02409679293842413,1.1229192799306877,1.0231663196489085,1727910611.1494184
0.6103068304440785,1.0937750681025025,1.0229453806812352,1727910611.154897
-0.5347076582122416,1.2128764327824326,1.0229772846343568,1727910611.1607401
0.0554401033030398,1.1186966549926785,1.0244952166741548,1727910611.1661184
0.5654391148871708,1.10362280478349,1.0246217510831739,1727910611.1710956
-0.5042168451144927,1.1849510735628332,1.0236777527267642,1727910611.1765718
0.03974588445600354,1.1186696656415018,1.0250805571710657,1727910611.1823983
0.03903962416686568,1.1497835944052346,1.0264062434469425,1727910611.1870522
0.6448930965216414,1.0354254018220517,1.0252982847486185,1727910611.192029
-0.6006815724316112,1.1942969255102303,1.0266200526368205,1727910611.1973963
0.42578606923843276,1.1687107209363496,1.027542992355936,1727910611.205079
0.15419919931574463,1.1183972810455975,1.026084149116913,1727910611.2080836
-0.5869641409374999,1.1485586478348957,1.0267770099193434,1727910611.2136116
0.027840886805083037,1.1538445012532013,1.0279040839361429,1727910611.218165
0.6750454019170988,1.066701568434094,1.0261976608635692,1727910611.2234325
-0.6533597695252711,1.2496461470705371,1.026750602296815,1727910611.2286282
0.03897314415257897,1.1330577626113676,1.0270871758990354,1727910611.2332668
0.6028417310179854,1.0946942262945674,1.0256149556791234,1727910611.238435
-0.6632323855081185,1.2090189897627601,1.0257081742681,1727910611.242781
0.05417369023927933,1.1597918845402644,1.0264391752125397,1727910611.247906
0.572013724843203,1.1131898238848934,1.0251762618648326,1727910611.2528834
-0.5816117944330579,1.1985877969415197,1.024708342303705,1727910611.258119
0.18102325488202697,1.0773125745617036,1.0255544064134638,1727910611.262978
0.5836833940452784,1.120230570552617,1.0236603383702547,1727910611.267909
-0.1409429224045228,1.0540656187418374,1.0202810118245569,1727910611.2729273
-0.07514758528870318,1.076979431895124,1.0171326577417852,1727910611.2779193
0.12622939233591912,1.2039209418238743,1.0144331584924986,1727910611.2829385
-0.12618505109485445,1.3134361133867742,1.0114652178568104,1727910611.2877622
0.017726894427974958,1.1229455154572732,1.009060306755059,1727910611.293649
-0.005795833293253415,1.1069173922032574,1.00701140057343,1727910611.2980306
-0.014033543479959842,1.1089492125544307,1.0051087165963823,1727910611.3030963
-0.005280271672952417,1.1318623834136907,1.0035071619259535,1727910611.3078623
-0.0006914301016300826,1.1118717329049295,1.0017757159962388,1727910611.3132827
0.006536776054485532,1.113834975076268,1.000684571348434,1727910611.3191195
-0.017956897727468522,1.1222305264509462,0.9998282346188511,1727910611.3231363
-0.02020936226812282,1.1103000659588078,0.9987252293938574,1727910611.3288286
-0.045252129726140414,1.1021436323639064,0.9977223656778653,1727910611.3337548
-0.05635140296518122,1.1174481010900341,0.9964665473086871,1727910611.339078
-0.019465434723341574,1.1299854405091083,0.9960995683815592,1727910611.3434515
-0.0270656669707188,1.1002753384239838,0.9951427360331235,1727910611.3481157
-0.05521814098920866,1.1161584175877648,0.9945960036872595,1727910611.3530948
-0.05040802984404935,1.099857188439558,0.9942137031794318,1727910611.3577743
-0.0652284098837813,1.1137311754583574,0.9938671196201833,1727910611.3626506
-0.04809901668071799,1.1434569766149918,0.9930195268830322,1727910611.3678799
-0.06636371268581,1.0969938095688587,0.9928188395199243,1727910611.3740487
-0.05104833678438901,1.1231941722478183,0.9923125598926396,1727910611.3791301
-0.0597588870717701,1.1392303530903696,0.9916556204352106,1727910611.384898
-0.04500774711314115,1.1132494336885719,0.9918854702221508,1727910611.3895998
-0.0896027870521402,1.0822164396698508,0.9911006498120962,1727910611.3940723
-0.06964152018531576,1.1263719297698531,0.9911084305479213,1727910611.3989158
-0.060367147879642674,1.1114726525034953,0.9902598085510939,1727910611.4041111
-0.08273415961992935,1.1318893651339716,0.9900579684384301,1727910611.4096549
-0.09662919204530854,1.1078024977182865,0.9896795125581026,1727910611.4139009
-0.41965504658966185,1.1150539177758894,0.989875780633827,1727910611.418771
0.3445152826398925,1.1606324821381993,0.991025766309306,1727910611.4237401
-0.12012762816504059,1.031769819529442,0.991158802171943,1727910611.43041
-0.11430556443543241,1.138320214592513,0.9907962608502721,1727910611.4410243
-0.517549446602059,1.0663193172780834,0.9922587676206928,1727910611.4456325
0.38007780720204243,1.1615626286540834,0.9924195492754728,1727910611.4509654
-0.17073670161642795,1.0803958046433852,0.9919549435049987,1727910611.4560874
-0.5665553900496161,1.0873069146483048,0.9934953149332937,1727910611.460718
0.38314740822065085,1.1974008198827517,0.9952140609156555,1727910611.466204
-0.1376130063563504,1.03168732608535,0.9951541497586835,1727910611.4708915
-0.5397694585634549,1.102776477872694,0.996150449565406,1727910611.4756153
0.38696595959700325,1.1899151944061692,0.9977200557857344,1727910611.4805565
-0.09618249398230469,1.0831562455152033,0.9985146634049407,1727910611.4850094
-0.5752830337401468,1.1047423706796724,0.9989541245559087,1727910611.489727
-0.103192965082089,1.1192827737458506,1.0006975891059127,1727910611.4944282
0.2959008389261034,1.1411427125329756,1.0014572617430133,1727910611.4990337
-0.5983034601487157,1.052527384330688,1.001888174858963,1727910611.504069
0.16426046867494526,1.1515733985767433,1.0037219541620384,1727910611.5086596
0.019712139867373447,1.13743328355441,1.0035912657269357,1727910611.5133731
-0.5830634898708486,1.1285344766073968,1.004361170537001,1727910611.5179553
-0.10968219203731046,1.1261970505131038,1.0063127060847936,1727910611.5228262
0.3915435123776857,1.1873511794701697,1.0070554498317676,1727910611.5274096
-0.5337643655824631,1.0767236459740077,1.0068682769147297,1727910611.5326586
-0.21582342698368548,1.151860457735344,1.0084313783999765,1727910611.5377424
0.29369778655311685,1.1951142259729755,1.0090887256502223,1727910611.5435236
-0.4694910402867973,1.0809981393903034,1.008514855262531,1727910611.5474253
-0.17895158161104713,1.135793116330327,1.0101053341407753,1727910611.5527945
0.22469010018825683,1.1496920321567932,1.0116970276879864,1727910611.557405
-0.08221994147729972,1.1270651957056832,1.0111775913040215,1727910611.5622847
-0.6273648495798977,1.1129448928766275,1.0120311134130013,1727910611.567061
-0.11927140907632014,1.1560110433106445,1.0135558065612045,1727910611.571892
0.3495499803158783,1.149901598395324,1.0131544018581198,1727910611.576774
-0.6397184689432065,1.1210153085571555,1.01307034638354,1727910611.5827665
-0.12657814485834748,1.1354170703914894,1.0141323772931774,1727910611.5866528
0.3380200259943597,1.1699778508531644,1.0152808737885441,1727910611.591528
-0.09683505691698113,1.1654019503002342,1.0142145041232138,1727910611.5965676
-0.6333995687412752,1.1035227375461278,1.014627203806003,1727910611.6014163
0.32305176688626264,1.1813926132566488,1.0156314567903677,1727910611.6062834
-0.1050378032477321,1.1763545718361759,1.0142722519595464,1727910611.61128
-0.6546494592542317,1.1484591288011967,1.0144973707333278,1727910611.6166146
0.38768700449021865,1.1436106444390362,1.014690087552542,1727910611.6210668
-0.10173563122389069,1.1405627199786468,1.0135532593542327,1727910611.6264098
-0.6734796677398286,1.1446122566706,1.0137118959347566,1727910611.6313891
0.36086034850083004,1.120991228012978,1.0139920304551386,1727910611.6360695
-0.11035983807681314,1.143395101838741,1.012669265689596,1727910611.6410277
-0.6959324992939615,1.172591993513264,1.012020846007319,1727910611.646524
-0.11150946692404856,1.1349196078307393,1.0135643430033374,1727910611.6505914
0.4789122248289108,1.1609141586769554,1.0124360280045208,1727910611.6555018
-0.23020848910544311,1.1262927950179251,1.0097309904552434,1727910611.6611328
-0.7941791687369759,1.096233811948129,1.0105230441737534,1727910611.665455
0.3644650854951911,1.13106490935713,1.0104541113868601,1727910611.6704314
-0.16328941521684542,1.1258826167749898,1.0087096584518112,1727910611.675666
-0.7645972898018771,1.1301450266797322,1.0092285738031765,1727910611.68057
0.3654009834671632,1.1302010656700199,1.0087071303626889,1727910611.6850128
-0.14661427639461075,1.1299759869470247,1.0068720237868145,1727910611.6903539
-0.654407235593447,1.1226264104677983,1.0067276619391279,1727910611.6951973
0.5130324156035991,1.1535470005332888,1.0064401107026562,1727910611.7001474
-0.2465191986997929,1.1402006230465735,1.0047322683799582,1727910611.705165
-0.16227588549668517,1.1255276560177165,1.003313061403762,1727910611.7099328
-0.6605376084479818,1.1238392417335352,1.0040239571497949,1727910611.7163386
0.48425909667743994,1.1211358729338137,1.0026371377021779,1727910611.7196276
-0.2519657901124443,1.1465601136975412,1.001529641660426,1727910611.7247376
-0.16888963765222212,1.123086558657333,0.9997981967742908,1727910611.7295897
-0.1465134270700295,1.1208268535051145,0.9988164347050308,1727910611.7345083
-0.12964675690559838,1.1290689342761555,0.9977779912211421,1727910611.7403028
-0.12529396943395532,1.1338248039830994,0.9977915620756448,1727910611.7445126
-0.2180373121898897,1.1151704063180343,0.9966870682748226,1727910611.749886
-0.16975200193407444,1.0982972078070894,0.9958305286149401,1727910611.7541165
-0.15384935262998156,1.1494924921763496,0.9951900814028051,1727910611.7591815
-0.11544314491773902,1.1244067567954572,0.9948998236913593,1727910611.7640646
-0.15206174560018768,1.1011028090813044,0.9944436214959921,1727910611.7690523
-0.15890506077453626,1.0642173589959527,0.9937828643129455,1727910611.7744553
-0.143647277208083,1.1276173810924042,0.9932893073739375,1727910611.7792692
-0.16665848625457802,1.1503937725581277,0.9927849066855389,1727910611.784423
-0.12517203568953222,1.116127662480586,0.9921606981934792,1727910611.7893221
-0.15411521829494876,1.1159861378166842,0.9919642539050089,1727910611.7941453
-0.1661947121875672,1.0938888864050662,0.9910998101805196,1727910611.7990196
-0.1436554937812956,1.107091743289144,0.9907298448327659,1727910611.804267
-0.14946037381095992,1.1250572734602995,0.9902787320896042,1727910611.8096051
-0.1597762705046128,1.0992727884276747,0.9900360456859815,1727910611.814439
-0.14563623112846774,1.1230980680823215,0.9894246093688249,1727910611.8197415
-0.1574111911607773,1.136363076243666,0.9889006932784979,1727910611.8248613
-0.16192152466961016,1.1377557617720178,0.98867636766795,1727910611.8299835
-0.10729502956865516,1.1161837292082903,0.9877332987470495,1727910611.8349943
-0.13375563056036519,1.1321334747485334,0.9874344958224287,1727910611.8401716
-0.1658164019895167,1.1220153833064634,0.9876211453930684,1727910611.8450394
-0.12617878478559313,1.1038577361001543,0.9873469971323479,1727910611.8501623
-0.14279786179112142,1.114008497602917,0.9874434146156763,1727910611.8550165
-0.15871778206024115,1.105167481477527,0.9870247478196723,1727910611.8601809
-0.13057416441891118,1.1307038370962519,0.9873699300207965,1727910611.8650794
-0.141075447393496,1.1115741612974261,0.98664432081004,1727910611.8703527
-0.11883521239071948,1.104630700718406,0.987423996252626,1727910611.8752723
-0.16653937565153862,1.0917667680844885,0.987079093534189,1727910611.8799973
-0.13710967621978484,1.1062331259735434,0.9870400962726763,1727910611.8849235
-0.15922706732702638,1.0930486670245438,0.9870357283034757,1727910611.890352
-0.13763949814441787,1.120523251573668,0.9870229783974241,1727910611.895136
-0.14603624684520417,1.1278895120738186,0.9869787880493688,1727910611.9001882
-0.14074948933071083,1.1224604216534932,0.9870041414943204,1727910611.9053128
-0.14445980901955086,1.113817248882902,0.9868195553395841,1727910611.9099972
-0.1554545078864251,1.1176391293476593,0.9869079196065433,1727910611.915037
-0.16513782277179076,1.0726661907697241,0.986666522816192,1727910611.9206474
-0.16132086582257962,1.0709950336386946,0.9862806967018797,1727910611.9252698
-0.16483202251967566,1.06134156458788,0.9863593008709897,1727910611.9301445
-0.11021990281976146,1.099610403434074,0.9861504622310346,1727910611.9351635
-0.16499746320913694,1.0905912111357157,0.9861989494935223,1727910611.9414327
-0.144020623383979,1.0710873423678173,0.9857449807572801,1727910611.9451985
-0.14629865534662564,1.0980741082644057,0.9858163170466213,1727910611.9507446
-0.15268677809266148,1.0936958666425312,0.9856145222032862,1727910611.9554355
-0.12751684679060168,1.11722844999801,0.986353339228589,1727910611.9602847
-0.11891383990392144,1.0699194010797226,0.9859759769797809,1727910611.9654937
-0.17077730743218916,1.0881903311085435,0.985857315945133,1727910611.970136
-0.1610288997485338,1.1230221362476849,0.98590630467232,1727910611.976492
-0.14052622608597967,1.1005834397595788,0.9863038869850844,1727910611.9805174
-0.14491317314049254,1.10104034557315,0.9859144946435182,1727910611.985656
-0.12199820961162623,1.119344743454551,0.9862660355383713,1727910611.992209
-0.15477506929793766,1.1362425053437328,0.9862339630975856,1727910611.995214
-0.1360333333407796,1.1478706711749138,0.9866523266154833,1727910612.0004833
-0.1340916615630906,1.1105028338282734,0.9860985135919313,1727910612.0052001
-0.14200044019595617,1.1353299993632007,0.9858737200405141,1727910612.0101757
-0.12698440080751316,1.1130579169959447,0.9860235681716587,1727910612.0151122
-0.10269495636808429,1.1313662104480782,0.9863114538852195,1727910612.0200672
-0.13843009470673898,1.1185190624917547,0.9861509402124724,1727910612.0248728
-0.12053858767628538,1.0959327750120496,0.9861790733147712,1727910612.0300395
-0.13233750941860725,1.1108507213178886,0.9861273499657305,1727910612.0349338
-0.10600771468034327,1.1176254660925098,0.9857480584362043,1727910612.039865
-0.10096352290332748,1.083212288188772,0.9863531463430083,1727910612.0449064
-0.12725552110322688,1.0852763571879793,0.9863561097133854,1727910612.0496716
-0.07514808717766852,1.1045795606145563,0.9866640793288785,1727910612.0545354
-0.12263616512338099,1.083117143972144,0.9863755919685712,1727910612.0595584
-0.09849629651523517,1.1193431935014297,0.9861553965043511,1727910612.0646048
-0.1255347108468676,1.1105527371318078,0.9864687962174965,1727910612.0693626
-0.08349066970405565,1.1101732906571176,0.9863862001941613,1727910612.0743773
-0.09071066530770325,1.0763481818900462,0.9863045430981028,1727910612.07958
-0.11337285553581748,1.1253146913897512,0.9862658468356236,1727910612.0842762
-0.09430053156686954,1.077833523735311,0.9859090298799243,1727910612.0902026
-0.10002195208748708,1.1072339574584007,0.985712564310482,1727910612.094261
-0.09152389221184568,1.1027736662420262,0.9856433396518584,1727910612.0991375
-0.1277320086775024,1.0775422638633003,0.9860636696496837,1727910612.1041307
-0.14594370613970778,1.094252888368541,0.9858510476198536,1727910612.1090724
-0.12353659220923943,1.120698685434565,0.9859113253079478,1727910612.1141376
-0.09816598025995191,1.0846778259280883,0.986127795197269,1727910612.1191401
-0.0923612630854778,1.0950763245539248,0.986220293875853,1727910612.124377
-0.10357541765535315,1.106419652689922,0.9860642607067498,1727910612.1291711
-0.06392304534690732,1.0895221377192634,0.9861829886261544,1727910612.1341593
-0.0626082475708078,1.0945996694445856,0.986281937051115,1727910612.1394212
-0.07086840435560779,1.0675158959144202,0.9861777031463408,1727910612.1440508
-0.06107600037218773,1.0870862502444176,0.9862685614376742,1727910612.1490774
-0.07026872946025486,1.1091590893825045,0.9860327966765481,1727910612.1541388
-0.09011849212314521,1.103993715718072,0.9860004464283479,1727910612.1594284
-0.07312664297331897,1.1053517748298056,0.9859966794358526,1727910612.1641917
-0.06968275258128696,1.0987666950639474,0.9859407131474608,1727910612.1693616
-0.05899241342291768,1.0981638372533864,0.9855568967468672,1727910612.1744523
-0.09778538578002566,1.1109151394341354,0.9860446998736014,1727910612.1791577
-0.0522981427769776,1.1156347423977793,0.9857832467419338,1727910612.18432
-0.0870876164254313,1.1204077989009456,0.9851085559047922,1727910612.1891482
-0.08712186425559071,1.114778908292966,0.98535111642623,1727910612.1940682
-0.06477315295396027,1.0795674273409772,0.9852601366434209,1727910612.1991317
-0.048458097186663385,1.092748341310302,0.9849100298364558,1727910612.204186
-0.06154512370263272,1.0917186854326586,0.9848244171652663,1727910612.20925
-0.053539049704764204,1.0962973085481855,0.9851809010996471,1727910612.2143452
-0.07908635599711886,1.1260535508006178,0.9845041962170172,1727910612.2192805
-0.038952293524944594,1.1121770530367192,0.9848440970942985,1727910612.2243254
-0.0763866169905906,1.0571525360605993,0.9846829877186116,1727910612.2291305
-0.06426661217961015,1.1094010383325,0.9853907780849246,1727910612.2341309
-0.05425429841617033,1.0992365819380117,0.9851012558099769,1727910612.2393823
-0.026455708014914057,1.0976564048189397,0.9849672646067307,1727910612.2443252
-0.026742625009489398,1.1022023347868901,0.9851256029731446,1727910612.2492497
-0.03879308440205684,1.079791588892383,0.985276757134469,1727910612.2543075
-0.04749151271244535,1.069037137081516,0.9850146641524011,1727910612.2600844
-0.03459035630416259,1.1084008338270361,0.9849605285422224,1727910612.2642283
-0.04337593391712733,1.1128697563003913,0.9851921856702607,1727910612.2693346
-0.026549678144458595,1.1027901509916342,0.9851117336845028,1727910612.2741828
-0.02968204968594838,1.0274842245186535,0.9847645488225376,1727910612.2793922
-0.10400692531093415,1.1345073235211467,0.9851125545016532,1727910612.2846084
0.012944493831609827,1.113795432464702,0.9855134717078764,1727910612.2896028
0.1141770433351945,1.1256588437944526,0.9854217934629775,1727910612.2954035
-0.11645108770159257,1.0823134385779607,0.9857624224345173,1727910612.2999961
0.03247775298436621,1.128611828430248,0.986127811107386,1727910612.3061068
0.011425170574515338,1.1111203505659057,0.9866270879742016,1727910612.3101048
-0.42193401564710264,1.0946528481105495,0.989727587894291,1727910612.315139
0.20180457288646228,1.0720741379771965,0.993594474922045,1727910612.320335
0.3354804962376579,1.0690906080332936,0.9950340312012157,1727910612.3251588
-0.03961470940673971,1.189102532152877,0.9960065475729032,1727910612.3301764
-0.4734361107279231,1.0827262434207938,0.9990951291782626,1727910612.3359704
0.7594275309905767,1.1106024517467483,0.9994191113269444,1727910612.34237
-0.04186941700199298,1.1809318941687053,0.9990941018786051,1727910612.345452
-0.5434385552804357,1.0772026972643485,1.000961617521837,1727910612.3503966
0.6371239920853368,1.1473176403655159,1.0003750828029476,1727910612.3556006
-0.056837434613601,1.137983563667609,1.0004401697551188,1727910612.3606298
0.010322341833145725,1.09586851469898,1.0000753999934633,1727910612.365646
-0.5258660924629305,1.0786980778501762,1.0001289293627957,1727910612.3705053
0.6025301388346211,1.1071870690019692,1.000665603567435,1727910612.3757603
0.06245429681329371,1.2304904197002318,0.9998223328430584,1727910612.3814895
-0.01603695284419176,1.0266793456181058,0.9990514011885634,1727910612.3864543
0.06246491816670534,1.147365678929841,0.9983831293768956,1727910612.391541
0.021209915788558617,1.1187002932003682,0.998056871127055,1727910612.396492
0.0032497724947800587,1.090330069696572,0.9966394701495008,1727910612.4020605
0.03226908361507445,1.0858914801307624,0.996088806653822,1727910612.407152
0.08275252736639635,1.1471013288105878,0.9948525416928461,1727910612.4120884
0.051541278335919205,1.1004127363206062,0.9940572245745182,1727910612.4173145
0.05888385545074682,1.115116581673549,0.9932954181345539,1727910612.4221854
0.06374697543084876,1.0549184050268714,0.992689408126436,1727910612.427337
0.058123191943566466,1.092609729464268,0.9918433683398774,1727910612.4336867
0.04809712850413793,1.089246875232514,0.9920254332645211,1727910612.4377174
0.0761023777042622,1.1068061344630487,0.9914716025106022,1727910612.442692
0.04169922864426591,1.094996348375809,0.9915751696355415,1727910612.447909
0.06866117066403729,1.1058552333888267,0.9924155819453541,1727910612.4528978
0.06817905281170586,1.1182290996406765,0.9924091454560326,1727910612.4577038
0.07896990787524377,1.1246357216423732,0.992394015040665,1727910612.4626827
0.08282183288110676,1.1145965502607398,0.9931514736164124,1727910612.4676104
0.08688815123589053,1.0886907460452484,0.993658225837929,1727910612.4726996
0.11118813633477106,1.133642633996538,0.9938551664538428,1727910612.4777274
0.07890930863610329,1.0971609005784684,0.9941281490179403,1727910612.482856
0.06464732156806026,1.116465620017846,0.994053317429226,1727910612.4877045
0.0608764019400065,1.0818363193157634,0.9940553514728984,1727910612.4928532
0.07021218228339256,1.0933461662149808,0.9942452057228921,1727910612.4983623
0.08852883700089949,1.1027292058833562,0.993812435089688,1727910612.5033152
0.09171276047614241,1.0674329587540745,0.9940188462327509,1727910612.5081642
0.09009040571798844,1.079090736403536,0.9938399139545891,1727910612.5130007
0.11127333042158347,1.1098909102892074,0.9932561387638679,1727910612.5178585
0.09935885893917758,1.0942205506425602,0.9935894845536386,1727910612.5228634
0.1183312389091981,1.1019009724436535,0.993330028192294,1727910612.5279002
0.09192272372650233,1.0802570549746155,0.9930914199299833,1727910612.5326457
0.10878572565905481,1.0662449318235752,0.9933504629995905,1727910612.537575
0.12008361234804961,1.1055154218393095,0.9932017293993348,1727910612.5433483
0.12020784094694882,1.0612548890681046,0.9930538301658535,1727910612.5473425
0.1286249518163968,1.1028069566837144,0.9929252162617245,1727910612.552589
0.13993769963247574,1.0915133866733082,0.9927981126620831,1727910612.557438
0.19190548307850452,1.1849784644941264,0.9922162598762063,1727910612.563259
0.08028961595836906,0.9616100546249364,0.9921972374428915,1727910612.5681715
0.15856192139929143,1.0781933683262206,0.9920352417776414,1727910612.572998
0.1318805641993565,1.0647901725369853,0.9922540949267326,1727910612.57808
0.13015330064280758,1.1143950553603683,0.9922671639877284,1727910612.5830379
0.16541346926775155,1.0775433165180208,0.9925737558456247,1727910612.5883713
0.15693294136819397,1.0579091026908305,0.9925299751010274,1727910612.593237
0.14410677982915937,1.097814953878375,0.993386802192068,1727910612.5979993
0.11835902623380426,1.1112569135667558,0.993307999810927,1727910612.6058884
0.15245731513159833,1.0961653354415377,0.9940865942155643,1727910612.608201
0.13299230005323381,1.0771737804429973,0.9949565166060923,1727910612.613606
0.17307762369224297,1.0699787212028058,0.9953317049506246,1727910612.618633
0.1823629308299655,1.1167758038890512,0.9957092091744765,1727910612.6236424
0.13473290773689867,1.0696976890198184,0.9967298976976354,1727910612.6287036
0.1479063162830649,1.1022004350984076,0.9978342344811356,1727910612.633527
0.14549968771646726,1.1341038091497722,0.9985065374270047,1727910612.638608
0.17200290910252664,1.1267781209430405,0.9991504920159044,1727910612.6435587
0.1657982604071752,1.0847916154553383,1.0000159094973597,1727910612.6485631
0.19483806150313135,1.0826126126003224,1.000681295311001,1727910612.6542215
0.17062243287614315,1.1108418946107212,1.0018058370780796,1727910612.6589184
0.18263154512725144,1.0971588868792796,1.0025354592338904,1727910612.6637104
0.18824172162802122,1.1158243615901453,1.0036949117331848,1727910612.6688015
0.18547501349141748,1.0805527795107237,1.0047046108975333,1727910612.6738167
0.19486890489863795,1.0941923973986274,1.0052648467101752,1727910612.6790738
0.16781058858267042,1.0985597099230873,1.006024184234949,1727910612.686354
0.17263082821175163,1.1066218719461107,1.0074365727391086,1727910612.6913571
0.19541730652107622,1.1051195113957295,1.0084334592918094,1727910612.695853
0.2188521800034165,1.086552595734625,1.0090905479205805,1727910612.7004478
0.15229719025687816,1.0495745926774391,1.0100686859906076,1727910612.7052135
0.17954723918067578,1.0619476299741275,1.0113288630729322,1727910612.7100482
0.17250796762437345,1.091349712259027,1.0126342608303491,1727910612.7149763
0.194686937687855,1.080618430011699,1.0134332781422037,1727910612.7204943
0.18576539408461873,1.0950842344693166,1.014715747581361,1727910612.7247803
0.1856166743709153,1.1245358429288006,1.0159711494177512,1727910612.7296824
0.20024729175104236,1.1306349184595492,1.0169563398381354,1727910612.7346277
0.21760376060282718,1.0701716749245298,1.0180538378474917,1727910612.73963
0.18040041832335887,1.0976773867127134,1.0191299481260196,1727910612.7455676
0.1830650524711558,1.073643388337388,1.019924532929189,1727910612.7511222
0.20959913048094997,1.0899182167322201,1.0211479987543775,1727910612.7560477
0.1695252524424884,1.105092386337833,1.0217128311037527,1727910612.761645
0.1876522239200229,1.075672485387034,1.022552880761407,1727910612.7666883
0.1954862338676619,1.114855459242523,1.0240335499826734,1727910612.7717438
0.20924779675271574,1.1117772368361505,1.0247449098272865,1727910612.7774477
0.21262994022943532,1.133802361845477,1.0259208659799146,1727910612.7817342
0.19667301217848207,1.0924819344200374,1.0269265539028583,1727910612.7864943
0.16899474622888,1.1037743242726106,1.027773003591863,1727910612.7922091
0.20991317549177302,1.09146845104915,1.028161946690231,1727910612.802964
0.1855346127795085,1.104196404627454,1.0307360728912676,1727910612.8064845
0.2135241193494381,1.1136082736082358,1.0318408602568752,1727910612.811378
0.2092510510775235,1.1306336673842228,1.032750774077315,1727910612.8161423
0.2073845851869952,1.115947410362766,1.034044202208093,1727910612.8210711
0.19912588689161206,1.1216217474348142,1.0350117676715072,1727910612.8263495
0.18239254057043935,1.1130395885099282,1.035669693095275,1727910612.8312805
0.2241938955106454,1.1096124315790352,1.0366418042525778,1727910612.8360856
0.22435720423145308,1.1161749226788076,1.0376961664485433,1727910612.8409538
0.19602719522890594,1.1291911885260644,1.0381421881555848,1727910612.8460853
0.20163093365325313,1.1187534139006594,1.0394952628774106,1727910612.8506455
0.20995887156004395,1.116562066483811,1.0398969834864495,1727910612.8555694
0.2110284065209285,1.1259835718227102,1.0411770127577118,1727910612.8608348
0.21052639442620236,1.11835334126698,1.0420270703227108,1727910612.8654494
0.19669411684100307,1.1006106144764107,1.0428350501175814,1727910612.8701575
0.20531764870643157,1.0966650987004245,1.0432052932956104,1727910612.875078
0.22563753386763566,1.120909727510678,1.0438833081735004,1727910612.8798428
0.2121824686665651,1.1207903928783858,1.0443814432196228,1727910612.884759
0.19379574483430229,1.1178716306710845,1.0452352239942184,1727910612.8896735
0.22624405264606212,1.1162051413546201,1.046326286758151,1727910612.8947432
0.19616124689240247,1.1277665743308403,1.047186938680201,1727910612.8999557
0.19006774497783627,1.1436696855225903,1.0476204347290778,1727910612.904812
0.22945411770694996,1.098837851152282,1.0481069482145582,1727910612.9122453
0.20588612065862652,1.1256852697108255,1.0494945470413917,1727910612.9154246
0.18326085973085632,1.1177668798518685,1.0498335933933398,1727910612.920787
0.18449276721874613,1.126268739811651,1.0509695413822326,1727910612.9257987
0.2040656528966154,1.143242790329647,1.0516207688155095,1727910612.9304802
0.24061186843388982,1.1141397284869474,1.0521465160016459,1727910612.9352238
0.21860307351534825,1.100289167672362,1.0529979240209673,1727910612.9400115
0.1913397907568307,1.102201068297189,1.0536986819681362,1727910612.9460464
0.21884049007538214,1.1280739094397685,1.0540388567009584,1727910612.9504542
0.24097015616741124,1.1102500912149562,1.0546391041021217,1727910612.9552507
0.2708691449182815,1.1077934161010008,1.0550634203411187,1727910612.9600348
0.2209909073698867,1.1159814702795425,1.0555220191432173,1727910612.9652867
0.23217043356356662,1.1340351604053807,1.056179694899297,1727910612.970052
0.22838772574426477,1.089510983296168,1.0562488165525332,1727910612.9755816
0.257188872498341,1.1439165188986742,1.0572402540294763,1727910612.980059
0.23342760252490885,1.104086204736813,1.057353229022458,1727910612.9850028
0.21540946395071975,1.141252267103712,1.0577663598071383,1727910612.9907477
0.22491891879731157,1.113959969457301,1.057950691780244,1727910612.9955854
0.24457042527538278,1.1086574332590167,1.0585808667563528,1727910613.0005457
0.2093093773981351,1.1232200159795773,1.0589639029386253,1727910613.005729
0.24994794263743772,1.1369433619228944,1.059270116824117,1727910613.0107813
0.23256509456127422,1.1531287705869655,1.0599966306613129,1727910613.0156941
0.20539941830527297,1.107582020679165,1.0605317962855445,1727910613.020524
0.23250127282344374,1.1103562702216507,1.0608012989237174,1727910613.0256388
0.22931601360575843,1.1228568056916122,1.0616541106404775,1727910613.030408
0.23653015711749095,1.148912948793264,1.0623725584371506,1727910613.0369658
0.24817560346209655,1.1576950917764617,1.0623298165789021,1727910613.0414023
0.24225778140154908,1.1239951986304366,1.0623998451278533,1727910613.0460305
0.22824663102262444,1.104979770286191,1.063114127885934,1727910613.0509257
0.23217146931186594,1.1359484945319205,1.0632450471085761,1727910613.0558298
0.21479559110689275,1.1085805213089193,1.062756574293544,1727910613.0610816
0.21841051985183196,1.1258178009379614,1.063168891424731,1727910613.0657542
0.2180934020741098,1.1440736403015084,1.062861455049146,1727910613.0708086
0.21591873139176893,1.144394416891874,1.0631850721136615,1727910613.0756936
0.22855504176573851,1.1193202052060072,1.0631607605646585,1727910613.0804226
0.23530069982751867,1.1022960261056358,1.0630562159848553,1727910613.0853708
0.22511960060461092,1.1286135020063748,1.0630676401330874,1727910613.090425
0.2279498753546989,1.152170191864459,1.0628681435511789,1727910613.0955074
0.21987441233339539,1.1701384153599812,1.0630949849284772,1727910613.1002402
0.2408234519726923,1.1371140560374131,1.0631048957034621,1727910613.1056283
0.228720352144515,1.14325472279671,1.0632811136907743,1727910613.11039
0.252679338227305,1.1522739057615743,1.063230089297347,1727910613.1182256
0.2158588187712363,1.1365438074019594,1.0633383027041552,1727910613.122989
0.21584850687758284,1.1345402685146977,1.0634923090730086,1727910613.126152
0.21842809237551877,1.0965951881737337,1.063509318984133,1727910613.1310737
0.2291988464316105,1.1205330941573561,1.0639361225335329,1727910613.1361105
0.23938650696462718,1.1352275294884087,1.0635374557502864,1727910613.1412022
0.21700167948346172,1.1302436343406475,1.0633718759409765,1727910613.1470618
0.22189547862110126,1.1444383011528867,1.0633733574287587,1727910613.151055
0.20914358686103482,1.1297652488245609,1.0629895442508868,1727910613.1560788
0.23457177051906128,1.1185013260122485,1.0623855188888707,1727910613.160905
0.21583304495958558,1.1168832818501746,1.062970412229594,1727910613.1657593
0.23270790392172222,1.1050682631317486,1.0625483201388937,1727910613.1706953
0.2338777321267157,1.1208835317764991,1.06219045618087,1727910613.175553
0.22320186515101667,1.1154343079603344,1.0615281397705187,1727910613.1803477
0.2176089507779893,1.1150320506881484,1.0617661788335746,1727910613.1854293
0.22695397484097787,1.1223986997257829,1.0614898806861646,1727910613.19069
0.23758614394282668,1.1429328994526713,1.0606637736475497,1727910613.1951787
0.21776900698300752,1.1497004777033444,1.0606598149126825,1727910613.2011495
0.2204395116499116,1.1665079638009301,1.0600825461272456,1727910613.2059846
0.22600492203918918,1.1392190910363031,1.0598855850705242,1727910613.210939
0.2372559094505228,1.15815784042118,1.0594882640666168,1727910613.2163875
0.2108054361936959,1.1624111140682305,1.059059776604328,1727910613.2211711
0.234455389104335,1.1502049960202771,1.0586561237621035,1727910613.22584
0.2080427425126184,1.1609215763809229,1.0587518339021473,1727910613.230997
0.2170936607936178,1.1128917937278817,1.057707720234809,1727910613.2360072
0.2537019748616669,1.1265248443043185,1.0574329066356851,1727910613.241268
0.26729869299314224,1.151126321857363,1.0567095926030734,1727910613.246494
0.21469109912694012,1.1499906714709023,1.0561742083386543,1727910613.2510653
0.182318402720198,1.1172520651895292,1.055680920408641,1727910613.2560816
0.21774707262811036,1.147215881385292,1.055196158089659,1727910613.2618234
0.19171310121475343,1.1331391000914843,1.0545063842219802,1727910613.2663178
0.2396533127163747,1.1716053538191704,1.0535990446996553,1727910613.2713592
0.21085450931962038,1.1442926173611474,1.052745081690346,1727910613.2760508
0.19536086393112015,1.1435312754420466,1.0521638172227892,1727910613.28104
0.19842845456318015,1.1560530937487423,1.0512924730552984,1727910613.2873867
0.20819060401144962,1.1516566460059874,1.050984931614302,1727910613.2910774
0.21763689806976308,1.1593896963637034,1.050141278520219,1727910613.2963939
0.2204325038140565,1.1488403178945141,1.0494488568850113,1727910613.30143
0.19713522708441872,1.146448441812494,1.0494164181448329,1727910613.3062592
0.2129672027366806,1.135774846175533,1.0483024406495742,1727910613.3115072
0.21857537513137046,1.1647344162266344,1.0473374669149849,1727910613.3165581
0.21453357717073818,1.1203872231997443,1.04690369351967,1727910613.321457
0.2330731482177285,1.1559618357634973,1.0461035921874677,1727910613.3268616
0.20981337519849816,1.1566130070981462,1.045166006970213,1727910613.3317425
0.1926130309488868,1.1692468378416838,1.04399191646522,1727910613.3367698
0.23535181256317672,1.1145861699227693,1.04358168457732,1727910613.341504
0.19732888099975135,1.1108961249191336,1.0427321269116023,1727910613.347247
0.22404223942385734,1.1540432596464127,1.0417151557327746,1727910613.3513346
0.21513317515991395,1.1458488148575876,1.0407724019434403,1727910613.3561463
0.22315198807845044,1.1442726618732608,1.0400993355057544,1727910613.3612833
0.23393933152596366,1.1484369611043055,1.0390388813944846,1727910613.3661513
0.18453648371175782,1.1341888298050786,1.038711061527214,1727910613.3711004
0.16523436094768126,1.0917903167630554,1.0373276268967953,1727910613.3760135
0.22084628920921895,1.1936516627614706,1.0365425882304313,1727910613.38093
0.19941177192890436,1.152911268510396,1.0359739670873231,1727910613.3858283
0.16613918390929067,1.1491063671818753,1.035229033277031,1727910613.3909967
0.21094198937740996,1.1833273405392877,1.0341326400957962,1727910613.3958364
0.19960069323225793,1.1988292003151955,1.0334343760952915,1727910613.4007812
0.18476578374251873,1.2437829419377013,1.0326941408328703,1727910613.406559
0.19667397608201392,1.3046632679597285,1.0320339265954273,1727910613.4111016
0.19246469760849105,1.309253091527118,1.0310499569686553,1727910613.416013
-0.0004334519564157431,1.4653961490892655,1.0318788014413725,1727910613.423422
0.18898895690866888,1.0359725266050683,1.032843288848609,1727910613.4268472
0.3346211157679117,1.5205451484308634,1.0339630010233467,1727910613.431155
0.12102367504551967,1.5609566233849224,1.0364619989737265,1727910613.4362273
0.1227913594564572,1.4548725490723853,1.037650361301208,1727910613.441944
-0.1266526451911959,1.6109721042304213,1.0397625781731363,1727910613.4467437
0.5876351568925289,1.1476105626039719,1.0422091553767627,1727910613.4538488
0.25385403198492534,1.1894416569848574,1.0421942807272255,1727910613.4594162
-0.2504423643686283,1.3707557591550115,1.045338910078344,1727910613.4629233
0.5888449460620581,0.9524420924912924,1.0461343710275037,1727910613.4679859
-0.16759711833093963,1.2728089816666373,1.0469020455116171,1727910613.4729614
0.1063183095293402,1.153222031044325,1.049930817722401,1727910613.477764
0.7151964409331233,0.9813222418514518,1.0500436131175745,1727910613.483423
-0.354222565829853,1.3291390438146335,1.0505077226456287,1727910613.4884474
0.16819195302155932,1.1428401080605115,1.0533915594873915,1727910613.4936256
0.7821701910824966,0.9661635831708238,1.0534555732903255,1727910613.499224
-0.44474600615458815,1.3498937853169035,1.0542656504253676,1727910613.5032868
0.22218429371827972,1.1169982648193892,1.0566007684925993,1727910613.5089152
0.7853242344262298,0.974162112052426,1.055295895342192,1727910613.51387
-0.4531468670445874,1.3476470733578914,1.0573960713010186,1727910613.5191987
0.8267019598515841,0.9801496268173339,1.0578233430892128,1727910613.5242307
-0.5337251144258106,1.3770500057736754,1.0574348004988068,1727910613.5292556
0.22080594645397386,1.1254958819356748,1.0587682613969551,1727910613.5342977
0.8502451727648629,1.024256177916595,1.0581762835686828,1727910613.5388918
-0.6074155476663178,1.3008473328673251,1.0584718858423487,1727910613.543705
0.19716629474868744,1.1021358450816676,1.0598853757461941,1727910613.5499175
0.8614566138643289,0.9700990082876928,1.0580938906455541,1727910613.5537717
-0.5827508693911188,1.2976503208526997,1.0579940078736163,1727910613.5586293
0.19633775896378095,1.0754299017808997,1.0599117925086687,1727910613.5639784
0.8634970207939299,0.9795944218097651,1.0584485563936414,1727910613.5691886
-0.6094006299944652,1.2872922692508928,1.0572454247006409,1727910613.574137
0.1889031358609134,1.0701154851409551,1.0592245012642132,1727910613.5790882
0.8746837026643228,0.9621742613768858,1.0584470321537363,1727910613.584034
-0.5632086904455003,1.2948502504020687,1.0571533058531035,1727910613.5887938
0.1611470142443198,1.0397881161191638,1.059407154076982,1727910613.5940597
0.8436278316503324,0.999972110832595,1.0568666420031083,1727910613.599038
-0.5963457414696334,1.3013383121358406,1.056089313444944,1727910613.6041045
0.18897752165792095,1.074524407438469,1.0574449744904217,1727910613.6090956
0.8169954506892805,1.0476842534448008,1.054649606758389,1727910613.6137042
-0.577827952297227,1.2836134617494417,1.0546378435770147,1727910613.6190493
0.8744404518168817,0.9890634719379514,1.0544960662152143,1727910613.6238081
0.12050875459902465,1.1532167714047183,1.0514309509449271,1727910613.6292706
-0.5362689097575626,1.1546722756137342,1.052931039191858,1727910613.6337862
0.7931889526743455,1.0264305893770194,1.04988681132857,1727910613.6392112
-0.5357690025603146,1.2382005496237596,1.048858800924721,1727910613.6439342
0.7817141035840728,1.0331431675502614,1.0493004289110972,1727910613.6492348
0.14922195291421522,1.1402080976635243,1.0463319797686466,1727910613.6539924
0.17991820616512,1.1485500615913813,1.0434455444886677,1727910613.658855
-0.5654979336086189,1.1189436807956064,1.0445927475182457,1727910613.663752
0.7787823583764101,1.0465351845536377,1.0420912081051663,1727910613.668603
0.18317211826625102,1.1920150227932265,1.0397302060496705,1727910613.6736712
-0.5556672413952531,1.1415667888472756,1.0398493287451702,1727910613.6786084
0.6794531270530138,1.061685116332925,1.037757121006922,1727910613.68359
0.21615461811392003,1.1392412392497564,1.0356554987147732,1727910613.6883676
-0.5103725156887411,1.1282787251843842,1.0352226931106991,1727910613.693232
0.7041824128177182,1.0790262590753552,1.033744208071572,1727910613.6980245
0.17741880760907994,1.1432642438069904,1.0320652741121434,1727910613.7030952
-0.32291033114503026,1.1714780134945337,1.030245055205863,1727910613.7087936
0.788225294746592,1.0564691251928193,1.0304333167799582,1727910613.7132227
0.021902334210926327,1.1139076842458884,1.0285422300601004,1727910613.7182033
0.2025073288971411,1.149196928655078,1.0267597548458018,1727910613.7234228
0.11930547902933668,1.1144283640987735,1.0252846294377669,1727910613.7282276
-0.5503033632894705,1.0785574188816458,1.0241666594727385,1727910613.7332582
0.6732398454597683,1.1055435301801715,1.022325598699238,1727910613.7383504
0.18457260710592216,1.1426421392490567,1.0205258605117309,1727910613.743642
0.1164305068692354,1.1140962152171343,1.0187067564939247,1727910613.749159
0.1154497117276307,1.108276152243212,1.0163903754090828,1727910613.7533658
0.09810607118612466,1.1053242475181082,1.0143142324319971,1727910613.7588453
0.12074465312842106,1.1241061731088309,1.0125903820105595,1727910613.763024
0.13766352088450218,1.134910778360463,1.0108509610206333,1727910613.76804
-0.028568448584376745,1.0995067951625244,1.0110167256205358,1727910613.7732043
0.19996141044557236,1.1324612248188664,1.0096231965416989,1727910613.7780142
0.15444400516094958,1.121455599723829,1.0082573341153336,1727910613.7829509
-0.4916353762358128,1.07075236551418,1.008566654961119,1727910613.7880821
0.6924066798142022,1.0964048295526634,1.0092857814128986,1727910613.7933326
0.1347533158894544,1.1477523933681308,1.0082781336240252,1727910613.798956
-0.46971688038868037,1.0968874072359653,1.0084165740490174,1727910613.8037188
0.46847571413636746,1.119160915442919,1.0108123138783858,1727910613.808217
0.30468081655051676,1.130649231572852,1.0106402096910725,1727910613.81305
-0.407902482539913,1.1164274151747995,1.0106158715414495,1727910613.8189688
-0.02815752909648887,1.104010766284056,1.012715297963105,1727910613.8229604
0.6553200556893606,1.1706308456639691,1.013205196489473,1727910613.82803
-0.4275301831892926,1.0980798840295147,1.0132886158782484,1727910613.833136
0.08774620015877115,1.1298125821479272,1.0156322895792251,1727910613.8388705
0.6594462329959008,1.1951719638513005,1.0152168508162005,1727910613.8434958
-0.534932161541007,1.1176382882909488,1.0163790086180249,1727910613.848421
0.027196033548294897,1.1307872889036352,1.0188645604556312,1727910613.8535948
0.7075056810687987,1.1575753260559456,1.0181137716172102,1727910613.8583505
-0.5169864780203604,1.0895013189887786,1.0193340231780432,1727910613.8631926
0.05067054535006231,1.1280322726929288,1.0208554505503182,1727910613.8679795
0.6487005879520381,1.1920203730947494,1.0224876335295758,1727910613.8730667
-0.4709537381352415,1.1168938766878083,1.0225435662519053,1727910613.878078
0.07688226913208158,1.1204085961525647,1.0247167882772874,1727910613.8830864
0.510993397252404,1.1590303060048133,1.0264026695834725,1727910613.8882573
-0.2572086562537,1.167359704502179,1.025640379571016,1727910613.8931046
-0.052902593963271724,1.1127839631498098,1.0271354209891257,1727910613.898159
0.022464628495274537,1.124552489411643,1.0289827117545718,1727910613.9042308
0.6375532123795622,1.171112844933985,1.0299612275555636,1727910613.9091833
-0.5312727917019865,1.1563539199355035,1.0292882142646127,1727910613.9146557
0.04423986231418289,1.1349302161892378,1.0305157424511544,1727910613.919868
0.01787357794685454,1.1318995740271762,1.0321430113775534,1727910613.9248536
0.6689381815960656,1.1717864131123796,1.0328511458364065,1727910613.9298923
-0.5900963209170241,1.1433129849107118,1.0319650105795828,1727910613.9351387
0.07416279059628253,1.154006752432362,1.0329102602089706,1727910613.9398854
0.037083029813893394,1.1303855819894242,1.0342116953027816,1727910613.9447536
0.6648940649303264,1.1378203633292883,1.0344659938137113,1727910613.9505904
-0.63352197265467,1.1765153296824828,1.0335414758930683,1727910613.954215
0.03447969193405423,1.149182455417222,1.0341894538735785,1727910613.9590516
0.021434404198355614,1.110449102631123,1.035469575952227,1727910613.9641554
0.7114732299560265,1.1790074708684142,1.0341103646469259,1727910613.9696548
-0.7054787274854317,1.1941363167344174,1.0343411985660977,1727910613.974271
0.08413438611352712,1.144156293833513,1.0346909232898847,1727910613.9788501
0.7074779656164932,1.1166414379525889,1.0341687653737726,1727910613.983757
-0.6881234431509436,1.1700674848718766,1.0330700549921852,1727910613.9886634
0.07166992126883764,1.1298219832075735,1.0341680498945411,1727910613.9935544
0.7183248960734419,1.1709544447813813,1.0330073190708748,1727910613.9986038
-0.7157292841368196,1.1348939672187353,1.0315268232261654,1727910614.0041444
-0.025124801980313582,1.135455152434891,1.0322173957789087,1727910614.0091615
0.6974298374009072,1.2101307599486202,1.031279965269119,1727910614.0141773
-0.6761301321737788,1.099391666843629,1.0299819924229359,1727910614.0194435
0.047827432148959154,1.1202569526255814,1.0306792175713801,1727910614.0240138
0.6278604114943167,1.2002476712940178,1.0289049055040358,1727910614.0290065
-0.6552980696052471,1.109198898760139,1.0272412262498307,1727910614.0340006
0.02995013956078084,1.1159333092171249,1.0285966241821154,1727910614.0391607
0.6892428466811416,1.1534252892021095,1.0264402508836596,1727910614.0441742
-0.702968400146606,1.1258612143721223,1.0255688647104944,1727910614.0493007
0.7339611698775734,1.1575157889677723,1.0258421240463864,1727910614.0541134
-0.004343885610679293,1.1518174096666487,1.0229921157405149,1727910614.0589855
-0.7054833778689249,1.1089976753606297,1.0230357036326063,1727910614.0649602
0.6662552687219346,1.0978397079646676,1.0226693148835875,1727910614.0692732
0.08686570797392919,1.2212369915369703,1.020268893796903,1727910614.0741851
-0.008928255037101937,1.0768387468512186,1.0177538961403663,1727910614.0791178
0.06741706536283186,1.138134488529083,1.0137157051474073,1727910614.0846653
-0.0034328000622050915,1.137504944714342,1.0100417578242633,1727910614.0889776
-0.04290923126232128,1.1287741387653523,1.0053897253169704,1727910614.0941322
-0.08815519137480118,1.02853847549496,1.0007046419399308,1727910614.099807
-0.11757769288244281,0.9867569943691488,0.9972028245000308,1727910614.106279
0.03845426823943948,1.2163335519023404,0.9942586794818358,1727910614.1096745
-0.09733050007823849,1.206681001050557,0.9917509391172195,1727910614.1143763
0.05254958647328432,1.0439412265088404,0.9904299791259532,1727910614.1191955
-0.043673195723217775,1.1431197050211732,0.9896260051700561,1727910614.1243656
-0.006878279977577043,1.1060268664715913,0.9887516033300972,1727910614.1292791
-0.022179544545841597,1.1070378452611545,0.9875970567655589,1727910614.134319
-0.036776419669100134,1.0705400505024087,0.9877610585028567,1727910614.1406898
-0.054978466694926134,1.0928038532836124,0.9873051690483866,1727910614.1449082
0.001474380890475413,1.1080523316603301,0.987024033828858,1727910614.1511247
-0.029146297134700058,1.0827664803982178,0.9868763009839169,1727910614.155201
-0.03191326753086264,1.0833965709265543,0.9872588455544045,1727910614.1668737
-0.061080371491735536,1.0790441775140123,0.9873740318616248,1727910614.1687484
-0.05389118451470064,1.1190164858120961,0.9871250686410498,1727910614.170786
-0.024498169485504227,1.0855976354586956,0.9873854209678079,1727910614.175744
-0.04230870622767894,1.0872036236091245,0.9878407888794838,1727910614.180255
-0.07861814582589571,1.1247731985524434,0.9875700643213622,1727910614.1849134
-0.0584724178822687,1.1068702731985611,0.9876727007030845,1727910614.1902227
-0.07353974832976265,1.0920559803407868,0.9880645417832249,1727910614.1949499
-0.046166924932101866,1.0775272470521378,0.9875886894635382,1727910614.1997764
-0.04927722712030709,1.112792093994287,0.9874233554221687,1727910614.2048652
-0.06184388908850359,1.092346195300898,0.9872922817802258,1727910614.209552
-0.07703718038625343,1.093273069454101,0.9872528441617664,1727910614.2146766
-0.10175244209031856,1.1306686173501168,0.987106828326511,1727910614.2195628
-0.08635919687140117,1.094326270437593,0.9870575592156886,1727910614.2243836
-0.04625301468965277,1.093707294164219,0.9869141193444725,1727910614.2291863
-0.06222950809867698,1.118059506579773,0.9865872646905662,1727910614.2342153
-0.07805536599591482,1.1046634394893644,0.9866416957181511,1727910614.239012
-0.049181150733830115,1.1411101675855222,0.9865285909640249,1727910614.2442713
-0.06788654140738781,1.1110696648957035,0.9868281134367002,1727910614.249453
-0.11012031864994563,1.1162780509761634,0.9868398873142169,1727910614.2547815
-0.10222260656910075,1.1084575897669666,0.9865816883423741,1727910614.2598433
-0.10516357820574733,1.1030287047348526,0.9870100149819903,1727910614.264871
-0.049273213140385165,1.0711125574830656,0.9873371667058506,1727910614.269612
-0.07135309244199708,1.0855793787299364,0.9873088054976412,1727910614.275015
-0.046436649007244354,1.0849881549082965,0.9874959158063037,1727910614.2800274
-0.0757423644721044,1.096162091240679,0.9873820261691815,1727910614.2847228
-0.06693900434400503,1.105124123279155,0.9877496494598107,1727910614.2897449
-0.38158636563883574,1.0931010689406744,0.988356418963869,1727910614.2946022
0.203300222529996,1.0893170314563798,0.9903483051823705,1727910614.2999406
0.05550950193030928,1.1186869495907372,0.9913418941549964,1727910614.3045218
-0.12105057751408832,1.1213328495901094,0.9907085479353794,1727910614.3105676
-0.4647395392020301,1.1051891397310518,0.9913833260945536,1727910614.314257
0.11408712406686229,1.149474697860975,0.9935252135552013,1727910614.319352
0.13378318595198171,1.0957055544717405,0.9942295095406246,1727910614.324622
-0.12375736421449017,1.0965662609859714,0.9939832836148439,1727910614.3294213
-0.5588850406287327,1.0702411003655756,0.9961617736528198,1727910614.334891
0.36084868959127697,1.1992739392286023,0.9961482900723502,1727910614.3400638
-0.4780600772207491,1.056579180515895,0.9964251183999312,1727910614.3453262
-0.23103143284083538,1.1007440227317908,0.9979960011283343,1727910614.3529654
0.2596892736272487,1.1632700516703325,0.9993512032447032,1727910614.3555424
-0.14406475740966473,1.0889738634199244,0.998731759718428,1727910614.3612142
-0.49464888163126347,1.1153818546375198,1.0007874171553353,1727910614.366438
0.42428946307695525,1.105406668404288,1.0026494939659691,1727910614.3717127
-0.49742660172034237,1.0905316406066998,1.0029062809521767,1727910614.3769283
-0.23097154998269293,1.1460463274093555,1.004382544491385,1727910614.3817334
0.45595417278962813,1.136643464814128,1.005349417795465,1727910614.3873026
-0.5446119890382305,1.1131180557406684,1.00510085772117,1727910614.3921275
-0.18545082324366838,1.1061780779682817,1.0068655067543406,1727910614.3969743
0.3904262518641562,1.2157389892579324,1.0077403614238205,1727910614.4017444
-0.10724825383154318,1.0652481672317267,1.00757099429049,1727910614.406855
-0.6118474300983849,1.131112386270577,1.008140883986708,1727910614.411948
0.25680179576197515,1.1432730152668578,1.0096244504467102,1727910614.4170606
0.01897122143365908,1.153111162334293,1.009006408113897,1727910614.422548
-0.6762382055540321,1.1360344090952792,1.0091578251832947,1727910614.4272628
0.22663607294256136,1.1547082424305515,1.0108054385200753,1727910614.432295
0.12478924140359168,1.0918272386356613,1.0098177909389143,1727910614.4370158
-0.7031924170367738,1.144142544468551,1.0096263259703697,1727910614.4419365
-0.1425625902992262,1.110406389209957,1.0111649197715642,1727910614.4466674
0.4802710838376008,1.1972690122555385,1.0108011493122924,1727910614.452042
-0.6644375154565016,1.0640143654198468,1.0106040797142657,1727910614.4566932
-0.14570959808624034,1.1233963024962883,1.0119701390787257,1727910614.4618134
0.40740020786578685,1.072689600348568,1.0108549280224817,1727910614.4665718
-0.6615260548316113,1.2028071943152299,1.0106767469160276,1727910614.4717593
0.3004312047321931,1.2110361561997696,1.011743066873953,1727910614.4766974
0.0017723453082737692,1.1066683754558377,1.0111129804267587,1727910614.483089
-0.6206951675086677,1.197155486847616,1.010797359920018,1727910614.486185
0.3747620184399171,1.1243263807101338,1.0113863088752684,1727910614.4912734
-0.01628324692361979,1.1858317815425516,1.0096442489361397,1727910614.4962494
-0.6633593238884433,1.1031991734048754,1.0095209356029353,1727910614.5011733
0.2640773838972603,1.1362974342780887,1.010133642467419,1727910614.5071843
0.12149698908047811,1.113881649223857,1.0091985796337055,1727910614.512213
-0.1892456348927236,1.1757985523325716,1.0073770961568935,1727910614.51734
-0.637210149652752,1.1380573389412658,1.007636366873844,1727910614.5220284
0.3332040093759799,1.1350787404116174,1.008574262674051,1727910614.527432
-0.08923926502716205,1.099257149524105,1.0073830917782067,1727910614.5324035
-0.14376551652123323,1.1837330012296388,1.0058127228318996,1727910614.5374143
-0.6095010351433836,1.112788521369661,1.0058966218872432,1727910614.5423362
0.5685917639597653,1.2440615160251078,1.005549770011889,1727910614.5472505
-0.1898108553948637,1.0711896228543305,1.0036039670361814,1727910614.553743
-0.1554296413437109,1.151831393565731,1.0023887928592523,1727910614.5582006
-0.6005166396106115,1.103744290057863,1.0027214611559443,1727910614.5630362
0.5069511205465322,1.1594037404595112,1.0024094498876497,1727910614.5681024
-0.16747273852910458,0.987801613767569,1.0013107395177177,1727910614.573655
-0.17308007205254064,1.1996662668852414,0.9997704010447898,1727910614.5784442
-0.09433562375468962,1.1419802998341624,0.9988667525791763,1727910614.5833256
-0.09829223222945162,1.1184423034338815,0.9982434726776711,1727910614.5880802
-0.08246115996806797,1.1082356734446823,0.9973764248386919,1727910614.593938
-0.10072152430916248,1.1006572422821328,0.9961438470250626,1727910614.5981214
-0.1170306371569137,1.1433872867453916,0.9956972890971121,1727910614.6031923
-0.1232323811386183,1.1710602778398531,0.9946804516979121,1727910614.6081965
-0.0783520004282286,1.0307609404956581,0.9935871940040263,1727910614.612933
-0.05437334708303722,1.0342211100742709,0.9929584121219571,1727910614.619304
-0.10124010169276383,1.207113028621095,0.991801047323023,1727910614.6230555
-0.0925609574681049,1.1143286906777092,0.9911269214963913,1727910614.627567
-0.10303409482748907,1.1171817818101237,0.9903967923053347,1727910614.6322918
-0.07125274626134025,1.1014310007731725,0.9892297811832733,1727910614.637413
-0.12615540735465222,1.095259074344145,0.9885901940468659,1727910614.6421292
-0.09772339033947552,1.1316904893916013,0.9885652219906895,1727910614.6469057
-0.09447179471508724,1.0882966843222213,0.9883941520253403,1727910614.6527119
-0.08934233980516391,1.111702212219079,0.9879657024282911,1727910614.6572492
-0.08619056855099888,1.1144159937694027,0.9879087638185483,1727910614.6619902
-0.052367156420441444,1.0875950951877613,0.9879297809260923,1727910614.6669538
-0.1041917660503515,1.0744087496088368,0.9880679376156863,1727910614.6728823
-0.09543680672540462,1.1124509942583913,0.9877053330397878,1727910614.6776195
-0.10820849281144383,1.1631741384524716,0.9878095513148505,1727910614.6825972
-0.08418908067206611,1.1014160977978338,0.987530682317563,1727910614.6875286
-0.08612918536934723,1.1135519369725548,0.986952988014204,1727910614.6923258
-0.08699974718819888,1.1092814139971348,0.9872705453230238,1727910614.6971087
-0.08765939397509429,1.0964900385589107,0.9873893671630684,1727910614.70223
-0.06613944696728621,1.1168411724026694,0.9871988777000692,1727910614.7072017
-0.09378225733124322,1.12770972598998,0.9863262975113063,1727910614.7122724
-0.0826825176574163,1.0888038390777142,0.9863456619789189,1727910614.7171676
-0.09068863630554437,1.0970249380311687,0.9867913070318206,1727910614.7228718
-0.08047614244003332,1.1027442354361632,0.9865990403784539,1727910614.7269623
-0.04411675274622895,1.068742683316416,0.9866916161693229,1727910614.7320879
-0.09784507455466757,1.097309876112075,0.986732482444857,1727910614.7367845
-0.09592817694770217,1.1291708816233816,0.9866538119490865,1727910614.7417374
-0.08041915040394179,1.1111659632377158,0.9864648588178659,1727910614.746641
-0.0688238653528014,1.0839952047834385,0.9866985394058534,1727910614.752762
-0.0894559624869071,1.1084635534285108,0.9870796632318836,1727910614.757611
-0.07724580890843569,1.088302676663675,0.9871926106429346,1727910614.7626977
-0.0438046806975042,1.112508622766518,0.9871710095555131,1727910614.7677772
-0.07591901506473475,1.1182511318985953,0.987247660763379,1727910614.7725983
-0.09504239542585247,1.0748317786293091,0.9869780026694636,1727910614.7775545
-0.06751013842248861,1.1081049709121726,0.9869988301297639,1727910614.7823606
-0.07596081621320776,1.0948906523475712,0.986840926659353,1727910614.7871606
-0.049056118912751495,1.093958775051406,0.9867209360186125,1727910614.7922375
-0.07506377389168392,1.0825068084278011,0.9866743051378524,1727910614.7986288
-0.046108399930896535,1.1092130222258836,0.9864896192264079,1727910614.8041577
-0.05008545410151071,1.0792244321215618,0.9865317683645212,1727910614.8089995
-0.08751946825429219,1.0676012423762808,0.986108264128983,1727910614.8141842
-0.05646295318927958,1.134760366865141,0.9861907828912198,1727910614.8190875
-0.041650217451595015,1.086752577182316,0.9865523845711516,1727910614.8246672
-0.06327536331770167,1.0786447426488817,0.9866469873326612,1727910614.8292553
-0.04880471841976567,1.1064963368546399,0.9864093887167052,1727910614.8341153
-0.03456932429701602,1.0693221191433107,0.9865978314085069,1727910614.8387434
-0.044464093381434956,1.1203522946450153,0.9866785282513478,1727910614.8435097
-0.05916377831332853,1.1094075025116203,0.9872820584316515,1727910614.8483822
-0.05051271503759098,1.1099129213398564,0.9875990977790787,1727910614.8531227
-0.04224571955643183,1.0967954909567856,0.9871674360716948,1727910614.8579845
-0.03252355886196156,1.10859302707998,0.9875914238878923,1727910614.8629544
-0.05213187821826986,1.1188960466907072,0.9879136907383813,1727910614.8677993
-0.034053771217853586,1.1088869381382978,0.9882997227452149,1727910614.872816
-0.06575371448536436,1.1033700120759953,0.9874667960108144,1727910614.8775346
-0.027410792251699564,1.090515765525159,0.9873676832118835,1727910614.8824077
-0.05896445419584348,1.0991980781331079,0.9877506512058489,1727910614.8872807
-0.04922671217085471,1.1052938444107132,0.9873718732384735,1727910614.8921232
-0.03615965374533971,1.105935767244104,0.9871554711762534,1727910614.8970823
-0.003908517817220691,1.0680110865501473,0.9869376917624184,1727910614.902123
-0.01752418012713119,1.1127005185309202,0.9868495558482556,1727910614.9072554
-0.08923401148800675,1.159731113883415,0.9858102397087549,1727910614.9124045
0.06326893334856287,1.0571343915155587,0.9852707280466285,1727910614.9173326
0.02935229918600325,1.1271624854033455,0.9854933865290492,1727910614.9220734
-0.10475413115213784,1.1885308437392699,0.9847250453718397,1727910614.9278412
-0.014968044215387655,1.0959669975462123,0.9845392315303941,1727910614.9325953
0.1185534811310171,1.0102286953457718,0.9837628929193952,1727910614.938022
-0.07854042774249079,1.16035953355403,0.9837503294709419,1727910614.942345
-0.011631511769060496,1.12854479172284,0.9832067783180974,1727910614.9470172
0.009562979555395956,1.1191097788425408,0.9833103173493419,1727910614.9529421
0.013130133901059415,1.1044618437187306,0.9830685635776113,1727910614.9569576
-0.017710535787570505,1.1012150979664777,0.9823898959931717,1727910614.962
0.018164537208101666,1.0692652097162678,0.9825727452861384,1727910614.9669785
0.0064947993962755435,1.104539634208277,0.9821012184276766,1727910614.9722414
-0.0031265685639042546,1.076580051343945,0.9813490785439795,1727910614.9772384
-0.01069663532836879,1.0822037410145862,0.9814589282084192,1727910614.9819899
-0.013074249239646075,1.0480734172168635,0.9806108284910625,1727910614.9872015
0.01884086660006742,1.0768026998100515,0.979965003581062,1727910614.992807
0.010576539651532891,1.0784850274530746,0.9801611957706593,1727910614.9970865
-0.009082829452157517,1.0788478490874098,0.9796959745032735,1727910615.0022142
0.02092644175368075,1.107631859616817,0.9784235010477064,1727910615.0082777
0.06510517412502612,1.0806406449688488,0.9785174866030221,1727910615.0130162
0.021255100598580726,1.0911931864207287,0.9783262716170973,1727910615.0179408
0.013153680036898222,1.0788049812836955,0.9777372721022128,1727910615.0235767
0.03905226572391626,1.0589537476351683,0.9773864145743635,1727910615.0283551
0.03887894189482525,1.0749408672281524,0.9774381270475924,1727910615.0340953
0.018846572581108174,1.1143807707717688,0.9772038100909031,1727910615.038045
0.033986303194091835,1.0913820353058328,0.9772144582557661,1727910615.0433779
0.03470806761531783,1.091592603911245,0.9773607399998726,1727910615.048328
0.03308635229536696,1.0746868415601105,0.9776139343176122,1727910615.0537193
0.006192745093499031,1.069018612638828,0.9772233166087582,1727910615.0584538
0.0381796166301566,1.0851131199449835,0.9776109403069358,1727910615.0631964
0.01801424382838053,1.0888997000001326,0.9771518068327487,1727910615.0678136
0.054922508906625714,1.074285136888215,0.9772434262998069,1727910615.0728054
0.04242192066548076,1.048341530973237,0.977412048991824,1727910615.0776625
0.03286575142345158,1.0642700703513241,0.9771988130841468,1727910615.0825982
0.0452353407412435,1.059331500172869,0.9771850794833813,1727910615.087509
0.05624121525268805,1.075245894424678,0.9772757239583707,1727910615.0926578
0.03500310759704641,1.094362626169802,0.9771182905097381,1727910615.0978074
0.04767985048461945,1.0941995159667435,0.9771344121287266,1727910615.1036518
0.05314730952511023,1.082133931772205,0.9772731963797403,1727910615.1084056
0.04870121066637046,1.100366874576836,0.9776175330859138,1727910615.1130757
0.07040231567969671,1.0458433978627153,0.9774898509900409,1727910615.1182253
0.055146743683476676,1.0050496105926214,0.9783191276739105,1727910615.1244361
0.052636000453392215,1.0332095411139024,0.9787474574388785,1727910615.1297219
0.05034780728447291,1.0282419423840439,0.9801376960960345,1727910615.1348817
0.07101209538026593,1.0516830005255333,0.9812261657211581,1727910615.1399195
0.027940249830986936,1.043835371612337,0.9822452978265626,1727910615.1451569
0.07143771938637136,1.0598994223952165,0.9838913071017789,1727910615.1501174
0.058682520842979834,1.0597664842345191,0.9856047203503718,1727910615.1566932
0.10052488925496528,1.124090036251054,0.9872246907156492,1727910615.1606944
0.1092065013095504,1.1847712361942673,0.9888101426734471,1727910615.1662672
0.0517276728956976,1.089811820381392,0.9899497638292453,1727910615.1705961
0.08684792262407835,1.1023888016002712,0.991305239834677,1727910615.1760068
0.08285585020433565,1.0782722032843675,0.9926717185275948,1727910615.1815536
0.03498127434457885,1.1198744903172273,0.9931707203818666,1727910615.185979
0.06076345556438168,1.0995880003903071,0.994023787724782,1727910615.1911514
0.08118790550560634,1.078334579685401,0.9948847846388431,1727910615.1956835
0.0736402135925308,1.0725296845771835,0.9951731097355676,1727910615.2002575
0.07798280371426895,1.0648720625612977,0.9959667924259453,1727910615.205047
0.09369277099666898,1.0803099968268046,0.9962326287559784,1727910615.2098382
0.06589359493800317,1.0948959389715165,0.9966684229285155,1727910615.2149003
0.09409984874350151,1.0736090470049036,0.9975650647627577,1727910615.2200694
0.06641924738642883,1.0812407510195357,0.9974955189046255,1727910615.225033
0.09079255884599224,1.0645316128424889,0.997468421359631,1727910615.2298062
0.11889899333716333,1.1125237456057497,0.9978787282240313,1727910615.2352831
0.07035602162011682,1.0972409429628,0.9981103677993209,1727910615.2407565
0.09509405597665063,1.0583709032913136,0.997758904615202,1727910615.245704
0.11036125837659623,1.1323555121595363,0.9977606710765565,1727910615.2511764
0.11090519909529073,1.1061508882238869,0.9977699852068367,1727910615.2561507
0.10469628844071016,1.077811833790013,0.9978146803413189,1727910615.2614448
0.10227278034452192,1.1119396348885642,0.997933448828118,1727910615.267251
0.11402447041015486,1.0985442527449756,0.9977196494752782,1727910615.2725368
0.10761527583698657,1.0634030293681287,0.9972890767334761,1727910615.277344
0.12868579072765973,1.136515334386895,0.9971066056345632,1727910615.28245
0.10118596713270256,1.0472637055710785,0.9969840752511294,1727910615.2869105
0.1370160996770797,1.1152150716585236,0.9964882180560344,1727910615.2919943
0.11458224925119993,1.0792612950559966,0.9966976873732006,1727910615.2968938
0.09498984687203042,1.1290837499087194,0.9965610507734839,1727910615.3017917
0.13673142781862746,1.0926941947015003,0.9970538139632744,1727910615.3066688
0.140567875112565,1.0766556786986357,0.9974023921385307,1727910615.3117275
0.1269189052058604,1.0903213703378272,0.997598958093452,1727910615.316371
0.12692284465293824,1.1166101797547088,0.9974814061762982,1727910615.322003
0.11307797792473354,1.066573146423587,0.9982430834798716,1727910615.3268106
0.14292388894854846,1.1182753984576117,0.9985486988750335,1727910615.331709
0.12636860660221313,1.0870151322347674,0.9987014480345626,1727910615.3371313
0.15114819480644512,1.0771188381947274,0.9990186354076364,1727910615.341434
0.11012265968554416,1.1003781779977924,0.9994804929665447,1727910615.346584
0.16436998503753827,1.109762131097656,1.0002366025049647,1727910615.3512385
0.11221913441063884,1.0846885613595996,1.0007210021828779,1727910615.356454
0.1745034725447126,1.0791836555745735,1.0004654396417212,1727910615.3618362
0.14092497585673278,1.0912729194325788,1.0010448521767805,1727910615.366538
0.10732063810742062,1.0665015219547995,1.0012523022541937,1727910615.3720613
0.1538128042131703,1.089096164285362,1.0017726023883293,1727910615.3763306
0.13656826145725073,1.0895780085188997,1.0021549684059203,1727910615.3810267
0.12225394468698378,1.1408919734649614,1.0029215666996845,1727910615.3858337
0.1448141827386023,1.121701509606336,1.0032622899925956,1727910615.3916898
0.16365000466850252,1.1005031273496098,1.0038398041093242,1727910615.3955722
0.15917981858249708,1.096094319955795,1.003998288263476,1727910615.4006004
0.13561462425972215,1.0977037047275222,1.0046212147238587,1727910615.4055665
0.14991755955202182,1.1035345559338268,1.0055139747679671,1727910615.4105887
0.15496994714556545,1.1152147015780913,1.0060807821129998,1727910615.415379
0.1258212937705246,1.0836483732570354,1.0067488300415492,1727910615.420579
0.11529520097213498,1.0906401793911944,1.007482070941733,1727910615.425962
0.1509114164202645,1.1204911406012128,1.007677000033677,1727910615.430948
0.12264412912026675,1.091088421068214,1.0085143999460677,1727910615.435985
0.15468621018569673,1.1105280267464765,1.0090654336360934,1727910615.4408946
0.17901425217081837,1.0998167147585582,1.0098239278773191,1727910615.4463205
0.1714660288168292,1.0958032872683787,1.0101619653269651,1727910615.4507241
0.10772460865836184,1.085573436615817,1.0106557160122192,1727910615.4562619
0.12217814060307222,1.096454694129485,1.0107709059752745,1727910615.4607465
0.14103769674816044,1.0987599588161203,1.0110431804655169,1727910615.4655857
0.14674949391274764,1.12800094022814,1.0118491144597401,1727910615.4706228
0.13835384976899925,1.094335801829036,1.0118372594506753,1727910615.4751134
0.16248898383444488,1.1118352837604595,1.0120278717480535,1727910615.4800375
0.14367126293343413,1.0652890088870073,1.0124266064244847,1727910615.4850674
0.16773317154741807,1.1179089853299018,1.0129017998531842,1727910615.4901674
0.15612451761678825,1.124366215476648,1.013049155106862,1727910615.4950032
0.1795551784299445,1.1152396211732498,1.0138682559807535,1727910615.4998076
0.1693574713217931,1.1236106012408513,1.0143700045489188,1727910615.5063844
0.11386052125477959,1.0980775012518529,1.0148349831733379,1727910615.5097141
0.12572723020401994,1.125025477346092,1.0152815468857497,1727910615.5148344
0.15731323329271413,1.0699343506364216,1.0157845603089732,1727910615.5259352
0.13614762959272753,1.0871775206197911,1.0165984255127671,1727910615.5277739
0.1266651720993162,1.116116259922455,1.0172066570002647,1727910615.5298738
0.1521491043723861,1.0791305988500635,1.0173137176481937,1727910615.5348055
0.16234761476256532,1.1126403906802298,1.0178021566732953,1727910615.5396855
0.1486666549844312,1.0872020052869926,1.0184002845835265,1727910615.5446928
0.16512795212844153,1.1206618823825045,1.0178625210096068,1727910615.549834
0.1581366423748745,1.131703389481485,1.018771290726535,1727910615.5552878
0.1560663293082998,1.110832879989596,1.0188387199350826,1727910615.559699
0.16216028951148603,1.0938475142140252,1.0190973812004225,1727910615.565421
0.1515146176629101,1.1000944599450886,1.0191201916785317,1727910615.57001
0.13771648989214047,1.1157572390475727,1.019562996172968,1727910615.5749612
0.16771519280326602,1.1158213355501978,1.0190683619537744,1727910615.580222
0.14525226805574482,1.1111390998325126,1.019517318050723,1727910615.5851865
0.17526277965180045,1.1007212077547834,1.0195213869345037,1727910615.5902503
0.1610480859504183,1.0855869322022351,1.0195260041977237,1727910615.594902
0.15946516485836945,1.1185516376777291,1.0196030259407658,1727910615.6004806
0.1468687626830787,1.1451697446033986,1.0197439093219325,1727910615.6053612
0.15079194447720287,1.13101836517724,1.0203218276790251,1727910615.610242
0.1339173005130561,1.1299150459301572,1.0204252135613532,1727910615.6152296
0.16838805837150755,1.1431426911887825,1.0206107445296504,1727910615.6202152
0.16248998355217795,1.1011981178966967,1.021032936410696,1727910615.6252508
0.13579107541836222,1.1390339562548781,1.021357502061469,1727910615.6302185
0.15357469985825073,1.1336839702450083,1.0215204247772236,1727910615.634797
0.14004903247818187,1.1153332730561303,1.021427842000656,1727910615.6396458
0.13924894343489136,1.130204036378962,1.0216894794735218,1727910615.6447923
0.1354382002422628,1.0840497076621998,1.0214795490922157,1727910615.6497915
0.16263886416841988,1.098910784533546,1.0219114828574078,1727910615.654817
0.15760074576718755,1.1047849824468639,1.0213991230541097,1727910615.65987
0.1587986659764893,1.0691832299069821,1.0215363893160783,1727910615.665032
0.1701442394416213,1.093166794502359,1.0213213216116688,1727910615.669851
0.18046999967210728,1.1222706672232055,1.0212263781630295,1727910615.675669
0.15182933675698182,1.0852331729082674,1.020917225486058,1727910615.680058
0.14788991930785741,1.092661584815373,1.0209195316258752,1727910615.6852293
0.16880860880624926,1.135431995499081,1.020606335193347,1727910615.6898913
0.15884334571326533,1.1080329344664903,1.020318617674846,1727910615.6947482
0.15315273292168488,1.09293613769883,1.0203577576086744,1727910615.699852
0.14463500385140596,1.1256165412096948,1.0204053248821858,1727910615.7048447
0.17987035606705243,1.118182520882685,1.0204424037434834,1727910615.709736
0.14639020698372812,1.1046371657680543,1.0202346835436782,1727910615.7148557
0.1634412039822179,1.1354912772538501,1.0198323035649108,1727910615.7200568
0.1446219430830314,1.1417780679361405,1.0200491482144882,1727910615.7250779
0.16390923345164266,1.123241936299291,1.0201091003613978,1727910615.7301702
0.13439453597316012,1.1407840008163113,1.0194315367043987,1727910615.7352324
0.11385235816948427,1.1425807458001676,1.0194596639638585,1727910615.7401419
0.12647274944646608,1.1077703606381202,1.0193242000231704,1727910615.7451077
0.1767247309057046,1.1439974547674068,1.0191800766099888,1727910615.7500458
0.15003170267125712,1.10328200922807,1.01888196427697,1727910615.7557259
0.1545442080062933,1.0964874142629504,1.0188362669354973,1727910615.7599142
0.17750124218544291,1.1442557810548697,1.0182813699257227,1727910615.764909
0.16183832608163498,1.1553604997152567,1.0180084407541032,1727910615.7699037
0.13278058204643478,1.1303090755221321,1.0175189889805292,1727910615.7749777
-0.08447320039317276,1.1168588460464668,1.0196151701389087,1727910615.7798836
0.2260300824826292,1.1273945295673133,1.0201240669673637,1727910615.78482
-0.16203956104560227,1.119713545167402,1.020075873169656,1727910615.7897573
0.41097397921722384,1.1283934299864435,1.0222393183396585,1727910615.7945833
0.25583518487488077,1.1207182088303893,1.02306941413151,1727910615.7997558
-0.22417820301133776,1.09755320748454,1.024931089449934,1727910615.805068
0.5946216103191705,1.1638070182374776,1.0264687169117306,1727910615.8097234
0.2736545580291276,1.146492674454283,1.0268715454341422,1727910615.8151536
-0.30166009133978605,1.1141498896300313,1.0290981286411218,1727910615.8202295
0.5473395742402712,1.1294396837502894,1.0310151312802078,1727910615.8254566
0.32685345659497167,1.099140394050366,1.0306853242883132,1727910615.829994
-0.40151055751286135,1.1456019939148285,1.0326215758609452,1727910615.8350046
0.5510635727144957,1.1384824260639692,1.0348923817053752,1727910615.8400357
0.2617427005252889,1.1416210116896888,1.0339707651287984,1727910615.8452754
-0.40590301172772747,1.141585100182871,1.0359994074361483,1727910615.8500261
0.06721390826335047,1.1333105452664292,1.038121146774488,1727910615.8547745
0.7309778102026786,1.1852057691331306,1.0370655069601102,1727910615.8600192
-0.3879267421741653,1.121596987440614,1.038544767818296,1727910615.8646777
0.6387048313931918,1.1752530242586332,1.039688122343526,1727910615.8699443
-0.30255587611850693,1.1129127104704633,1.038975656834905,1727910615.875083
0.05369102120298913,1.114314369464133,1.0403494512988425,1727910615.880063
0.6500350498531232,1.164716256541929,1.0404350223636833,1727910615.8851185
-0.40736101993911333,1.13066333386246,1.0404542755132977,1727910615.889908
0.15739703350596518,1.1559917529240156,1.04192307396137,1727910615.8949335
0.7003207496033874,1.1394897288512533,1.0406254550009493,1727910615.8999484
-0.4262825198543826,1.1447471552365909,1.040606282913182,1727910615.9050317
0.6896014561885712,1.1600178090231759,1.0412774572248817,1727910615.9097428
-0.3072250748539754,1.1367904052517472,1.039780064932449,1727910615.9147797
0.019818404184575457,1.152650173254415,1.04060898485191,1727910615.919626
0.7263957256518602,1.1873900339785612,1.0394423456133381,1727910615.9248087
-0.44948389929080146,1.0673590133766246,1.0379422866150403,1727910615.9297547
0.6312609318644868,1.1447123377026884,1.038450810281454,1727910615.935075
0.14198033245646427,1.1786866801849991,1.0367059394893083,1727910615.9395974
-0.2976276588807674,1.1405956066351153,1.0348026444877285,1727910615.9446177
-0.0131573819161109,1.164693299677326,1.035871780818251,1727910615.9496074
0.6821763184457804,1.149446547742234,1.03377291203445,1727910615.9554248
0.23034933270416466,1.1653444361596172,1.0313084086494366,1727910615.9593208
-0.529079237260014,1.1355742549330128,1.0313990737101744,1727910615.9643207
0.6890140726737153,1.1163665240883538,1.0294077673907605,1727910615.96928
0.21031333059115362,1.1633829179125401,1.027374539201107,1727910615.974144
-0.5259971102860728,1.1374272317403415,1.0269481124351874,1727910615.9792318
0.6190798455802511,1.0790273204410326,1.024678810680735,1727910615.9841893
0.24354150034242333,1.1479827490198231,1.0229095135490707,1727910615.9890447
0.18069378026606442,1.104231742723706,1.020829969406635,1727910615.9943416
0.10607159000358245,1.1254001043667605,1.0182210616248057,1727910615.999707
0.013828397135440334,1.1473241574748325,1.018123993424787,1727910616.005163
0.14213586951855064,1.1105572167104247,1.0161857062687691,1727910616.0098553
0.15172605537396588,1.1364736224415708,1.0143119941376895,1727910616.0158575
0.13024344188416587,1.1262415537681103,1.0124459798567857,1727910616.0202522
0.11475560719608666,1.114015376964625,1.0102142190892132,1727910616.0252352
0.0858410354628057,1.1291716499829683,1.008453298274138,1727910616.0300763
0.11878028384304957,1.1201543018053282,1.0061880491811137,1727910616.0351162
0.1242619950948163,1.1269034575557644,1.0046796141755219,1727910616.0400856
0.11008417720308615,1.0848430502807473,1.0027609061354865,1727910616.0449631
0.12883519812379007,1.116480391140085,1.0014841018045368,1727910616.050138
0.14948506356469282,1.1023591528775372,0.9995445592698864,1727910616.0549529
0.1360841940054622,1.1233692878785437,0.9977389667585651,1727910616.0603487
0.11785710605336061,1.1028865842199314,0.996169956834006,1727910616.0649562
0.10852871301513849,1.053897526303712,0.9951613574532778,1727910616.0702283
0.07880218988725582,1.1367997320720895,0.9940033281725388,1727910616.0752387
0.10451561355081682,1.1241603394180935,0.9931258284380008,1727910616.080348
0.144889071025393,1.0759634886155283,0.9913992564590609,1727910616.0852256
0.10160539407573195,1.1212961882013712,0.9909014389307587,1727910616.090392
0.1383166222478476,1.080745844698366,0.9904488307398488,1727910616.095104
0.12083686930168618,1.0999875593376272,0.9892366262641763,1727910616.1001956
0.15634463823363065,1.0930183132999982,0.9889260556797894,1727910616.1051707
0.10443759135587144,1.0794270030706143,0.9884174373511746,1727910616.110269
0.10269961428767332,1.0794218199525276,0.9881822958284249,1727910616.1149774
0.08107446790960063,1.1054290121019372,0.9877932814820847,1727910616.1203418
0.10937703751624493,1.0773752120723623,0.9877781579678413,1727910616.1254942
0.1401748769791091,1.1098262973467679,0.9870923862889073,1727910616.1302533
0.13023916193026133,1.089017562287217,0.9869554065047295,1727910616.1351888
0.09535524384130889,1.0887007176838248,0.9862604696290421,1727910616.140238
0.08671663823680711,1.093405308122116,0.9856757966643618,1727910616.145191
0.10120420282339865,1.0721356980475512,0.985226256857194,1727910616.1500497
0.0838520691374028,1.0721590373886425,0.9845772035606831,1727910616.1554015
0.12674760137542726,1.0651912474472136,0.9846106403760163,1727910616.160655
0.11292666498348704,1.1048635586662716,0.984266165001618,1727910616.1654
0.11290393874736572,1.0978346100110183,0.9840949499303634,1727910616.1702366
-0.3637176119169099,1.0841369933298903,0.9853203695836501,1727910616.1753633
0.6030312141617565,1.040831488322334,0.985854564245564,1727910616.1803956
0.04806285950017895,1.1545358824920728,0.9861637561780787,1727910616.1861708
-0.3780885230260381,1.1211401910700327,0.9867088585627565,1727910616.1907196
0.42873731857803277,1.0589873913171461,0.9886049226749679,1727910616.1952467
0.253992834131636,1.1085959311294984,0.9891680922350469,1727910616.2001936
-0.4090274689273557,1.1528683864708007,0.9904230294459067,1727910616.205203
0.4271690392446609,1.105391943352748,0.9916246638975307,1727910616.2102883
0.22247203911846025,1.0827545110213845,0.9923471409948078,1727910616.2150779
-0.4517104959900441,1.1278593290107797,0.9927588587759468,1727910616.2202537
0.3186937886744398,1.0898869890941787,0.9950198862827776,1727910616.2254224
0.3555868645716483,1.1089117482037945,0.9951212056955764,1727910616.2308738
-0.45692751323734093,1.1576921052708886,0.9953410430504024,1727910616.2357726
0.006630410095663061,1.1025585918929706,0.9976826569585452,1727910616.2411346
0.7317592271729967,1.129814818280568,0.9983839623267083,1727910616.2461746
-0.434336668005977,1.120999657950903,0.998769872818696,1727910616.251049
0.03808549967408201,1.119980045162779,1.0004079949446765,1727910616.2561297
0.6543886951902697,1.10734409416101,1.000136018142634,1727910616.261191
-0.5033369221089242,1.1229302313515974,1.0006618862615997,1727910616.2664042
0.004786544893709239,1.0827206147413093,1.0024263810025917,1727910616.2713199
0.6848238769776193,1.136731276153821,1.0028047142304823,1727910616.2762396
-0.4969349317946279,1.1441305828062611,1.003724300450445,1727910616.28095
0.017790880163322666,1.1144814125084597,1.004919457162977,1727910616.2863045
0.7079816052528514,1.130959936399269,1.005010147545619,1727910616.2908883
-0.5253845762815805,1.1378172775780864,1.0053747841525145,1727910616.2960095
