acc_x,acc_y,angular_z,stamp
-0.05316266713232837,0.013687532847136225,8.707373215665542e-05,0.000755654
-0.09212857129564012,0.005277271882302668,1.4947299328234236e-05,0.005445117
-0.0501158842175159,-0.030721793022862712,-0.00019027482567469676,0.01049167
-0.1031845454914759,0.018444943260360554,-0.00027855332423705963,0.015603516
-0.02349840893886786,-0.01755868876444173,-3.49825878457304e-05,0.021082619
-0.04208634437660651,-0.02756248687418601,6.108146072896367e-05,0.025816454
-0.05358477798809703,-0.022484332483383357,0.0003089142569246765,0.031048923
-0.07573382340595425,0.02602991804459248,-0.00019938351088911815,0.036042426
-0.02180654601544972,-0.002588968414179502,0.00025566019105862227,0.040999508
-0.052366893200791485,0.005282630503630778,0.0002150375750397585,0.046235978
-0.06197913116466798,0.0007418195538886967,-0.0003241813898107098,0.051033704
-0.048072321254797275,0.01969639452076694,-0.000371531449398213,0.05606019
-0.07021264662178059,-0.00021371116808259613,-9.595513566540598e-05,0.061066695
-0.06868918078162053,-0.013008981715798439,0.00022954278825664754,0.066041781
-0.07767807480835773,0.005386952338713645,-1.575239252551872e-05,0.070918244
-0.055291954599271116,-0.0257790262368572,-0.0002888696024509385,0.076718605
-0.03595963089359713,-0.015469913563843026,0.00013514660300055904,0.081738404
-0.08789886724719312,0.032454648388509935,-4.508711938995256e-05,0.086568957
-0.025930905316933487,0.012452795670743675,-5.3411533981489255e-05,0.092046448
-0.055878640708965165,0.029329226440454423,-0.00013683149070853055,0.096816532
-0.0663836967152385,-0.008577423811641019,-6.409390278519687e-05,0.10152004
-0.0736010151093953,-0.015499316472681062,-9.176124508085569e-05,0.10651189
-0.059472101662392654,-0.014348059036675178,0.0001843928037436222,0.111513299
-0.10694196677713229,0.02309715356619368,0.005648764003005367,0.116764406
-0.08338867377346368,0.017423031297690628,0.048928910511258764,0.121077319
-0.14234839547023648,0.04461404227224468,0.11371136372247412,0.125965704
-0.10965660453206938,0.06708446581374779,0.19405324579116393,0.13085912
-0.08397253970623529,0.03457260952015645,0.281608000420358,0.135658562
-0.09263231201896639,-0.15799363194570257,0.3727596944399942,0.141486221
-0.05705035228700299,0.11927445910221984,0.4589523190183218,0.145902379
-0.11293700022199708,-0.055398275343305194,0.5483471898282406,0.151030925
-0.07295582670445447,0.08427934317476678,0.6613620540414799,0.156304611
-0.08770603426847934,-0.02475762234694051,0.7763563089455248,0.160939417
-0.09148794603699786,-0.09338735674928797,0.8877390801801553,0.165850599
-0.05823076807082532,0.04713651880137486,0.9869558427504366,0.170683809
-0.056454302837102566,-0.08225648074417839,1.0686756725721787,0.175584154
-0.03791685195898667,0.08858843654430447,1.129864522191199,0.180528436
1.8774134356285295,-0.030421259894192133,1.1742377041815535,0.186258361
-0.05241514330904353,-0.007031623884243835,1.2086959465201892,0.190908529
-0.03241135485800256,0.05115755661541569,1.225445816848604,0.196128074
0.06987283299439785,-0.06727981247685785,1.2279767018041137,0.201158564
-0.18578590506823836,0.11249568538570831,1.215740443115327,0.205957631
-0.021340577873726414,0.020357276214944015,1.1909734958435485,0.210903613
0.12562386585801266,-0.09749597832305062,1.1573541341300355,0.215956611
2.401652053333641,0.12350474312301019,1.1236297209000219,0.222764732
-0.07709511571459582,-0.00010093500330866229,1.0667886725062357,0.225961733
-0.053252988777760066,0.024779587074303198,1.01862116788403,0.231058
-0.07010261726836368,0.028219790374901688,0.9722367068984996,0.23597771
-0.044184779387882366,0.05218475883842859,0.9300880834828409,0.240953562
-0.021720890247693664,0.006523761070641423,0.8969134113899048,0.246259447
-0.07195843278321751,0.052992314537142426,0.8721432791565257,0.252833182
-0.06967542445917806,0.047632158310618414,0.8570841141833522,0.256273456
0.1094406781973885,-0.08193499512985623,0.8537617871190336,0.26191102
-0.1907661771029294,0.08598256941592938,0.861488309407174,0.266385955
-0.04305554829856753,0.005770403903247366,0.8731557446562312,0.271194009
0.07026361220393308,-0.07368257023860716,0.8947938685040621,0.276069755
-0.21026245373947944,0.11413025037682578,0.9208116166183198,0.282332415
-0.025124490189118245,0.008914238477969025,0.9500398225352293,0.287941758
0.06112745834201043,-0.06902537647795925,0.979941439039788,0.29221319
-0.21943698328788583,0.12468674332691987,1.008858426931237,0.297270082
-0.026929698255990092,0.0032975812277239013,1.0348631418987209,0.301951437
0.07576754938455753,-0.08849833774934376,1.0560498240351772,0.306990637
-0.17879923533224518,0.11634143552761148,1.0716846342046285,0.311741352
-0.06903891130985082,0.006090276837937721,1.0817604634550548,0.316992355
1.9928367618386427,0.03612889463261926,1.0854006764238422,0.321817068
-0.014629906249713382,0.024678310449480625,1.082559803830605,0.327243617
-0.08235054258554952,0.06393898421230221,1.0742755587535662,0.332037693
-0.05346525061865552,0.03561667625784404,1.0610449009365013,0.337567035
-0.060812987289238174,0.04004211181895532,1.0443859990132676,0.342414441
-0.06312029591504838,0.05431000594654613,1.0263013252033364,0.347232541
-0.03770464232262129,0.023459201643583893,1.006907084961395,0.352418461
-0.0273130389282944,0.023395994757153836,0.988535061203512,0.357594671
-0.050399071958464846,0.00590859393238927,0.9725232333806595,0.362413205
-0.03597322259522095,0.045936376600779726,0.9600527639389552,0.36742814
-0.06837596777431575,0.06587133715525464,0.9505690264582026,0.372247931
-0.04674991183931508,0.007711958712174026,0.9447965136490258,0.377941317
-0.07646595035375828,0.008961177426367997,0.9432292656628786,0.382898473
0.034674622059693155,-0.10287815867655468,0.9453981640095653,0.387656752
-0.14617956736716128,0.16417412340639467,0.9513394233538864,0.392618385
-0.04223079406188105,0.023197522220547197,0.9591045777477752,0.3975185
-0.03128543068588899,0.030091448671843036,0.9690403043882874,0.402457101
-0.05672542543536168,-0.005211512787959189,0.9800407676583137,0.407681735
-0.05980971760197784,0.025432753719791222,0.9919424208278171,0.412175363
-0.06515212018636381,0.014097764496500255,1.002560378064401,0.41694229
-0.04709624482017638,0.004656752288139929,1.0108216286618055,0.423329345
1.734179163339974,-0.06022226829774148,1.0211964719775073,0.42792047
-0.142550509908485,0.15391821139492157,1.0259471599940138,0.433155006
-0.05030540517063954,0.011628376885337473,1.02846216076892,0.438005511
-0.05394351149293287,0.048059996093788214,1.0298552114003316,0.443015223
0.046879333813308735,-0.07217124207735218,1.0278983121677934,0.447816539
-0.11435632741051123,0.18041782626558753,1.0243965831589261,0.453088371
-0.026432277681506022,0.0014572149372774172,1.0188517658378105,0.459002047
-0.05154184979295252,0.025766383135819623,1.012683301970582,0.462815056
0.010471173998881096,-0.09876299510330472,1.0065005462108783,0.467683632
-0.09839034755884313,0.13967743880813682,1.0001916701630864,0.472674378
-0.054591480916486364,0.008038928803722981,0.9943755694319945,0.477833952
-0.0578848075475274,0.0291227429311249,0.9891437769815365,0.48277308
-0.006554096440925011,-0.08641796786742639,0.9855486271839285,0.487681602
-0.08548667466506213,0.18111674572847147,0.982337380683019,0.492896222
-0.0405379751079966,0.046090894190386034,0.9811494674511636,0.497761105
-0.050412273360647776,0.03348291847184476,0.9804290712191297,0.50320854
-0.032634627729227025,0.0656033026791012,0.9817248159488549,0.508279177
-0.05421696742540939,-0.004748139404680503,0.9838124844164498,0.51321136
-0.030147093730181766,0.021298665600696026,0.9862823802116418,0.518092438
-0.05788004388059646,0.050967446953815124,0.9903650829731276,0.523050989
2.035556651121666,0.009746797856197817,0.994054214271436,0.528537102
-0.05836950968944314,-0.10361160165428203,0.9971602342241956,0.533591677
-0.10553928363369235,0.2531733371342032,1.000400060591722,0.538527979
-0.0116056297841782,-0.008481516910264292,1.002837895726152,0.543862489
0.003979470136569921,-0.1392054152510218,1.0048698507227602,0.548916529
-0.09259342901520348,0.20580781555983016,1.0062477692260754,0.553741242
-0.09770321342393451,0.02906565930144266,1.0064202386113803,0.558785617
-0.05653647416791382,0.011652513588317509,1.0069608761877502,0.563764954
-0.0732299791548247,0.0711581707300919,1.006497042137558,0.568724539
-0.08021872073625488,0.04669686375885563,1.0056994323930095,0.574072254
-0.07399528627827977,0.009219568265688833,1.0048353619423411,0.579412547
-0.04849740372272463,0.0341613095038613,1.0030972137375083,0.585421893
-0.0036986787252016604,-0.07964783036074195,1.0015981183772886,0.591212587
-0.12729836567768038,0.13012526777254588,1.0004879800908741,0.596403714
-0.04065046274375065,0.039440963889299616,0.9990621310249345,0.601650996
0.021922532070476973,-0.0572284812477093,0.9979665004443675,0.607044367
-0.13028688318177076,0.09220287753190655,0.9967480097429945,0.612050122
-0.061301537259665126,0.01936189592032293,0.995723937950292,0.616673183
-0.03945358747859515,0.013457104870566956,0.9957092848711873,0.621623359
-0.05750283617055767,0.03866975790553151,0.9959000276044898,0.627403919
1.4217937341423028,-0.025814210429606663,0.9959137575205079,0.632423122
0.2351377777587396,0.0742255497045087,0.995599250196358,0.636684765
0.025961876452326994,0.02710722337829961,0.9961545971474787,0.641695872
-0.12891500484245796,0.05826375546490048,0.996535781074924,0.646597657
-0.04485862526259023,0.04953584025998334,0.9966404405693446,0.651688973
0.043476058736949416,0.03306367134880157,0.9970563854422616,0.656392777
-0.16247583481042274,0.049426282351273505,0.9970956176093817,0.661542879
0.032744132427801685,0.05629567335772982,0.9974185333940502,0.665957846
-0.19229433485677397,0.06703929361237736,0.9982680841282604,0.671057422
-0.08185913555857521,0.031696253884450694,0.9980740905090741,0.675781212
0.0679962816788049,0.06883590409019366,0.9992928693362234,0.680822289
-0.1809083697320547,0.03742559803263029,0.9997969011929752,0.685875365
-0.05243765028619682,0.07406626869785876,0.9999798111578865,0.690833414
0.030332566923397895,0.04175209465004067,1.0004075308201226,0.696402211
-0.19979994122495454,0.06309031909018774,1.0007453296910254,0.700679042
-0.07632735517370054,0.06656616698293302,1.000762716917851,0.705471535
0.09037300235593475,0.053815859225149795,1.0011131019218196,0.710188364
-0.17988755140489407,0.06713979421156364,1.00103461019385,0.715505632
-0.039211326815301185,0.028074414246733844,1.001286818691956,0.719965868
0.062668863477555,0.044108649803356256,1.000799635625959,0.724928589
-0.17103902852758118,0.040708094261929915,1.0009265045950897,0.729849276
1.9711635153366955,0.0025600958844912997,1.0007297612437442,0.734578755
0.066112971780703,0.1317762827223601,0.9997665543269638,0.739748624
-0.2521168058914717,-0.007141264564071644,0.9988232524777384,0.744752609
-0.04966968093953697,0.061341746190409455,0.9985981760840352,0.750041554
0.08781240485087734,0.1074603201989391,0.9972668265896025,0.754895058
-0.219257116152844,-0.005616735850779011,0.9966905026194761,0.759970657
-0.0394167162817481,0.07224184258257929,0.9961870727748308,0.765996504
0.11722316528359977,0.12909387365636235,0.9959930258292928,0.771192566
-0.2123691300393482,-0.014373264007243449,0.9956033152080921,0.776146416
-0.041595580158675725,0.05733657534714086,0.9958021122975288,0.781498926
0.07897004680292691,0.14214100335485033,0.99657499403307,0.786423993
-0.24870863033044469,-0.025164208872880886,0.9967681454855601,0.791226974
-0.045873740992435054,0.08540793625145944,0.9978590021414522,0.796172747
0.14386029595333016,0.14585529895789193,0.998218176994481,0.802062907
-0.24138727626384496,0.02588913036246812,0.9991857189431692,0.806029135
-0.06235333056310871,0.03888831674997634,1.0001339837638916,0.811128431
0.11087088576334592,0.12494669671128267,1.0005283349172467,0.816126588
-0.2256243193220604,-0.0011409851078348077,1.0012777695162558,0.820722064
-0.042964206324558565,0.03583319393000213,1.0017860939552912,0.82741675
-0.04770877728562746,0.024522627344798535,1.002018806384267,0.830663112
2.023366281931762,0.06478306063135479,1.0015336429653399,0.835681345
-0.04860023647819281,0.08002478551525785,1.0016874276107228,0.840594086
-0.08856559340404721,0.10008178967148391,1.000649772713295,0.845543587
0.11939668056026823,0.0980004867249599,1.0003692664342907,0.85071217
-0.2029974578867349,0.018779446446512336,0.9994399967278417,0.855671955
-0.03913048977517034,0.07780356364179197,0.9980611232124312,0.860837651
-0.039591878549320794,0.0591988286574375,0.9974817452902437,0.865665944
0.11794516765470088,0.12465810440912936,0.9970086004879365,0.870947211
-0.2315856364194247,0.03347576553722083,0.9963288698569245,0.876270923
-0.05080243444171064,0.046997735427690326,0.9960967430096209,0.880964303
-0.034317258319348565,0.08541199224270864,0.9961576502027599,0.885717935
0.08529185289276324,0.11905287659392498,0.9962638250417222,0.890826898
-0.2247622824116854,0.051657396307625406,0.9965728845795114,0.895691236
-0.03053050545583559,0.0527743159276609,0.9972532801645254,0.900845294
1.9676940791039228,0.09210279928988378,0.9975183405183936,0.906015022
0.025060016590569938,0.10624034710718025,0.9986010016727283,0.910720745
-0.22090165252873936,0.016445227341937138,0.9995116859705199,0.915661957
-0.04235829351033584,0.09347332027125738,1.000400645417099,0.920808462
-0.06043258240964274,0.10821305286946108,1.0006102800828252,0.92554312
-0.030042402629449357,0.0621899736624697,1.0013706023985927,0.93049291
-0.01953681946523996,0.07428056609600564,1.0013482443443271,0.935524055
-0.08605848334997737,0.07541214606994122,1.0015953599080658,0.94067372
-0.03575682705585538,0.0805862290895667,1.0011831027030715,0.945499347
-0.060221678315008784,0.05955826824183366,1.0015291303104237,0.950490891
-0.07184383595484113,0.09321826156399676,1.0013800731961964,0.955564294
-0.05598010097998243,0.08753030475167711,1.0011095547000373,0.960665012
-0.06565466336907537,0.10658987262632287,1.0008537880874226,0.96579371
-0.03967317117365402,0.04985994729574378,0.9999609015593337,0.972156622
-0.07249225199023399,0.05803196618895273,0.9995735521736412,0.976549467
-0.053884944457675145,0.05297989903096863,0.9990329228996299,0.981265781
-0.06832826976152602,0.07890850300828536,0.9993430114526853,0.986133353
-0.03850654166573805,0.07863585324710731,0.9985828402561784,0.991197954
-0.02956734059607089,0.06997588821315968,0.9985213334802427,0.996045325
-0.049234346689949124,0.0924903322314688,0.9984911818619433,1.000844106
-0.038325253122759015,0.08357324118440398,0.9978654014796763,1.005737214
-0.04309854867165921,0.07280439212273143,0.9979390724311511,1.010776864
-0.02737350224949735,0.07154454716645875,0.9975470014101622,1.015649499
-0.04872449479865355,0.09777625125954507,0.9974259018437773,1.020663754
-0.006437583509222612,0.10324418635521308,0.9970765685006224,1.026179682
-0.055203474327718265,0.06679953533433682,0.9970662955326928,1.030733235
-0.0555027517945503,0.08001301860260447,0.9969648467851353,1.035641164
1.9533405859880462,0.08771097600008583,0.9967694988636454,1.04048138
-0.0640621027214856,0.10525451008805302,0.9969858474874221,1.045494133
-0.053497578529993525,0.06922568819648232,0.9974569999946112,1.050426266
-0.052777618919645664,0.08268722900752018,0.9976749319243132,1.055161315
-0.06880298871683783,0.08511528903672695,0.9982767454634244,1.060214294
-0.049955396846129194,0.1118409433635141,0.9988314244640298,1.064980309
-0.06162814550427654,0.0845705123758752,0.9994117844873984,1.069957767
-0.03127665472668085,0.09973710565672934,0.9999214054389788,1.074998236
-0.05322047659095251,0.09555888286063326,1.0003867673404707,1.079989182
-0.0844255949115145,0.11042229174781548,1.0005256894018464,1.084981801
0.06416292345605666,0.05895044415136817,1.0006525050462856,1.090055677
-0.16044430247266597,0.09481798971256519,1.0009233884663873,1.09505597
-0.06627149026099133,0.13235739466129529,1.0009071525589814,1.099927857
-0.0457473460529136,0.10985883774813707,1.0010283719676811,1.106932045
0.14275711961894738,0.03358686852044929,1.0009995211529819,1.110260084
-0.21341930553771984,0.12842569597605238,1.0004806273143643,1.115376953
-0.03654939635471754,0.11627530496508179,0.9994497134068511,1.120145899
-0.052410041344818845,0.09277088236041557,0.9984766665602733,1.12509661
0.08793349658379321,0.02579190726582427,0.9979134506527889,1.130136634
-0.25630631545226346,0.16392100785321945,0.9970120672306009,1.134838003
1.5864467496523194,0.0834729409963906,0.9965275554148132,1.140739631
0.43135375055767006,0.05943885954867782,0.996701151678546,1.144906423
-0.210091387616442,0.18832313950977514,0.9966877527473716,1.14993262
-0.055307847847970666,0.09153198161347154,0.9964628105520038,1.154947124
-0.06097369685837078,0.12770016095456338,0.9965482967777077,1.159857717
-0.07887172726272082,0.11210962925732264,0.9971796567501253,1.164943164
-0.04669479393695894,0.125618942382647,0.9979577948132226,1.170025704
-0.054143921967460935,0.07574565199656245,0.9981239963197082,1.175016198
0.058241820737796025,0.008387605986707045,0.999008790043694,1.180054591
-0.2243270189733196,0.20157789753712838,0.9995086453536003,1.185185764
-0.030074722058273388,0.11727659253702274,0.9997155671420476,1.189863854
0.09400779081029459,0.058863616837819044,1.0007894325215965,1.195066662
-0.22687295302805938,0.1908969194802134,1.0007359109355225,1.200041225
-0.045376588765839214,0.09323953302505451,1.0009061514993431,1.205106983
-0.015740938651895308,0.10105769035521106,1.0013748421912143,1.210749609
0.08885053348657386,-0.008470294615958222,1.0008260571521457,1.215501467
-0.234449341743363,0.2261700749593602,1.0008446195418603,1.220038497
-0.0691264779760035,0.10797457673031827,0.9999839062162389,1.226159969
0.1073920408544288,0.020061749839170695,0.9991320589725283,1.230050573
-0.18928126699717945,0.21799633755610653,0.9989255976928998,1.235257403
-0.04440675524288981,0.07682595863255888,0.998352434463154,1.240096297
2.117266988077838,0.018300230477880944,0.9981205158696804,1.245375845
-0.24771949146611302,0.24627995796938343,0.9976955491273362,1.250099897
-0.0676452661569968,0.1287277921823449,0.9972919769845592,1.255027568
0.10653309653152299,0.028917286781813326,0.9971044286482524,1.260274789
-0.1651376406757749,0.22441236056918235,0.9973376466526532,1.265243303
-0.05763897604070152,0.07451851009755886,0.9972444748514306,1.270488764
-0.04653149671640881,0.10468194647130377,0.9976014431592709,1.275606889
-0.06777473358060784,0.09874571919563178,0.9984157781914855,1.280803142
-0.08189748544718989,0.07579115859812231,0.9988225511148903,1.285959918
-0.02682377291240604,0.12668924946616314,0.999993403101446,1.291051137
0.0849051646699211,0.05263505973268074,0.9999786958546084,1.295899235
-0.1410167905459452,0.18946605206327358,1.0005801697167376,1.300984615
-0.049166391936671876,0.10167857634647712,1.000926515274714,1.30641243
1.6836879566428211,0.08162867193082458,1.0008549198621928,1.311390139
0.16565021376108227,0.23487470056155033,1.0013192034944192,1.315736291
-0.0754835905082441,0.12179230893291904,1.0007895187527727,1.320784484
-0.07749982329365776,0.11088914429683634,1.000723216521913,1.325719066
-0.04353752201648363,0.11620303692739223,1.0013272234544246,1.33063589
-0.05130009847812992,0.12184530977610564,1.0003931495104463,1.335513165
-0.056797026548519286,0.09590381084053246,1.000375492969823,1.340469041
-0.05376053978296373,0.11926796472582119,1.0000793743902563,1.34549733
-0.016582437547823625,0.12477884692190808,0.9993420905859145,1.350482476
-0.05873068132288524,0.10108692439629809,0.9996624275685223,1.356152568
-0.044757408653378836,0.11656454635595345,0.9997452530782492,1.360718385
-0.08334912452373819,0.0863236912796876,0.9992984173074047,1.365898007
-0.05513527854319446,0.10442195317991763,0.9992406904816767,1.370629718
0.03498765654798697,0.1195702188033397,0.9991670592671366,1.375645087
-0.12603760235346229,0.09799453042132994,0.9988976547484419,1.380471694
-0.048963628452793465,0.13084619565922517,0.999144572719375,1.385560812
-0.04945716548291424,0.12292137722663622,0.9994390238245568,1.390528365
-0.07193813034755783,0.11222969817955188,0.999242090500014,1.395516289
-0.042255285565659835,0.10717076364803967,0.999565985956531,1.400785585
-0.07559124056602305,0.1419325030898169,0.9995273388475723,1.405566904
0.02759212470255082,0.1300788146599084,0.999643886131295,1.410545375
-2.118259329039747,0.06858274458199394,1.0001985562000757,1.41552965
-0.016374820411236765,0.10284496970426396,0.9993432605019608,1.421148424
-0.04409422508398107,0.10312518387441542,1.0001967593165557,1.426516827
-0.06965802258554525,0.10995725956855303,0.9997879210289955,1.430947308
-0.07239094321280806,0.1055500755988224,0.9996349918782848,1.43666983
-0.046701627049188885,0.10763973848988863,0.9993004551843392,1.441012829
-0.01228710108006928,0.18832929827830996,0.9990266277477975,1.447796032
3.880970581315833,0.09100652224324757,0.9987246522594402,1.45110425
-0.12286567960602375,0.1497037123825884,0.9986557669334318,1.456686732
-0.0969128974172929,0.13759904498430572,0.9983100442528909,1.461489194
-0.04920643600734506,0.13830883170523894,0.9981633779437432,1.466693557
-0.06238251363137925,0.1208402337414206,0.9987254500112451,1.471573277
-0.056889227016378954,0.14915141058386494,0.9988820296529,1.476654057
-0.0745578309313595,0.10668041726179239,0.9990083527539011,1.482290938
-0.051062995539120526,0.15643723053914835,0.9992786042935905,1.486632669
-0.0908920870723621,0.1303226857911199,0.9997011609677509,1.491550594
-0.06642125562646498,0.1410401727390923,1.0000769495672701,1.496450826
-0.03482211688901651,0.16265789085118273,1.0001471690170907,1.501261064
-0.005060653062161698,0.19577981330881095,0.9999327413370649,1.506938594
-0.12623760443748697,0.06927445386886096,1.0006708736823011,1.511711652
1.9263845348275663,0.16836739005481774,1.0010062119487217,1.516936529
-0.01883756909891379,0.17130884205920072,1.0008823477748885,1.521619185
-0.02398317727467711,0.22299278731743633,1.0008327754563862,1.526735136
-0.13192038963334338,0.08628088546627805,1.000959818659734,1.531698075
-0.07498145625855747,0.14690822046592003,1.000727681653662,1.536450985
-0.046715637699700455,0.1404919925348934,1.000858013704346,1.541520982
-0.037316831744655395,0.23461044863967853,1.0001967538477907,1.546508229
-0.1356450879955712,0.0978360613834398,1.000117900022493,1.551447172
-0.06542240399661788,0.1983676733509439,1.0002800558223703,1.55618982
-0.03223512403387465,0.1410155841264664,1.000234512066676,1.561313401
-0.057325191808530726,0.1591818379100404,1.0002229606673967,1.566036055
-0.044727892286817617,0.1302057355109596,0.9998236898883203,1.570916762
-0.04543522734830351,0.16360090300920807,0.9991439577648941,1.576137424
-0.056399775008680555,0.17066247867379356,0.9996072212333903,1.580987242
-0.06275892276533938,0.16288882099860108,0.9995595261486148,1.585894983
0.031639507491829394,0.2613183080383612,0.9995703593267179,1.590971122
-0.12656273342981839,8.936247161858701e-05,0.9990847258584363,1.595952332
-0.046756012045900006,0.15854545800272515,0.9998291719570613,1.601158674
-0.037482542986824005,0.15314471075133756,0.9992035415771534,1.606021109
-0.07718573977284571,0.14366860633620165,0.9999265675499277,1.611076825
-0.059294759346339314,0.15031196649112155,0.9999653875626306,1.615971301
1.9940446275786219,0.17213362900254553,0.9997972889108959,1.62106745
-0.07405416253463243,0.16166577403770013,1.0000099256235877,1.627906316
-0.07059917125617501,0.16059134817667997,1.0005231209084158,1.630972873
-0.03683933488925905,0.19783441846195127,1.000082655948726,1.635981476
-0.03401518558225998,0.16012130396048407,1.0005887936920161,1.641035352
-0.04766523293270108,0.1735803655428416,1.0004471911294666,1.646321101
-0.08799094782113497,0.16523361345565304,1.0007747166902818,1.652289903
0.022484971207747746,0.29723606681237974,1.0007247298432036,1.655940744
-0.11422593827956502,0.01781503834553973,1.000443042335038,1.661076519
-0.06259759938939372,0.17735186554347762,1.0007651682831549,1.665925395
-0.030841162444443376,0.16909260350305952,1.0008174665976786,1.671160016
0.0012128893625303239,0.2837462514092684,1.000234743236028,1.675991626
-0.144167579268316,0.009121520735543592,1.0002148436201508,1.682025165
-0.054354122766505,0.18568901979441144,0.9996712526491535,1.686155542
-0.05587914707792237,0.20357513476395758,1.000096049422081,1.690827651
0.021505443480737057,0.34611216947305545,0.9991961878735798,1.697078597
-0.14264848616485576,0.008127254837428424,0.9996600091501239,1.702025568
-0.0445699036031255,0.18672025140277598,0.99941881219483,1.706573983
-0.05863163712529357,0.17582019277307984,0.9996963343585162,1.711880524
0.008037020161254103,0.35708809777354555,0.9993517357571485,1.716981187
1.948723112262636,0.03633163144347644,0.9989329931115644,1.722021714
-0.06872549701165187,0.20396881413012993,0.9993629818004629,1.727182465
-0.06652856040312062,0.20482258435773873,0.9995982268486981,1.732319986
-0.05433497747887313,0.21196183740544317,1.0002114000836628,1.737192134
-0.025128828555042303,0.16941293017240389,0.9995811461848803,1.742258349
-0.07006705034040622,0.18936045190468448,1.0001325875510712,1.747069219
-0.04265145331389881,0.19368596281115313,1.0005671499238311,1.752069092
-0.07096345443304805,0.2074219489863414,1.0005795337274905,1.75800124
-0.04321593222710849,0.16261138533681269,1.000509017579957,1.763026444
-0.0534913799873436,0.19025926101086363,1.000466724817264,1.768102859
-0.06236316552281557,0.14038306408393236,1.0006734037506124,1.773083908
-0.06939751783639714,0.223052369084631,1.0006901785494469,1.778283026
-0.08041679490412437,0.1555737896965164,1.0004142121689164,1.783592138
-0.02041122051824356,0.21186598563041092,0.9998585886152194,1.790226616
-0.04519896989293119,0.20558566288284832,0.9999790944207829,1.793187762
0.04002900588692973,0.3394720866323069,0.9997875838892873,1.798441331
-0.12973298661180846,0.03694286239676002,0.9994402603200738,1.80300746
-0.0447713131173259,0.24230870500819074,0.9995637466826214,1.808746355
-0.024722369099491198,0.19407460848499095,0.9993921633682304,1.813694425
0.029043137860676208,0.3007319471475202,0.9990890350528779,1.818683291
1.5080505640288098,0.05337502450757529,0.9989911660215013,1.824279037
0.3258553055949441,0.2187265771752008,0.9990876904294702,1.828873963
-0.08937226102738344,0.22705407356238666,0.9995105956030178,1.833581668
0.046598967667666434,0.29782189933517206,0.9992354676810872,1.838686821
-0.1394387618157083,0.0938167359921674,0.9996395864057678,1.843700666
-0.029347904792912393,0.23471777199491048,0.9998219625891802,1.849023665
-0.07565192591940523,0.23012082282139434,1.0003451605400149,1.853800232
0.030308261061456666,0.2991318352176738,1.000590292571337,1.859833827
-0.12969781220393248,0.10967567079951673,1.0004448483789878,1.864028092
-0.013362249813604746,0.2612278850726857,1.0005846387774562,1.869003127
-0.06547047349029012,0.21937211171202586,1.001385087097109,1.874038166
0.0664769833470305,0.3154638380192089,1.0004066959775109,1.878986586
-0.1472148818074076,0.07563712106294068,1.0002109868865972,1.884213898
-0.038491742217892894,0.21545336708552631,0.9999451336679405,1.889064753
-0.06618158880858788,0.22060822054967427,0.9999246834727192,1.894382204
0.055754617867012926,0.318353604098645,0.9996967775845212,1.899630494
-0.18973309713087258,0.09867679078563031,0.9997435664745618,1.904821075
-0.0398224629635391,0.2106165057302817,0.9997098440655267,1.90984274
-0.028390167763727134,0.21163564631168538,0.999296408223143,1.914869048
0.0002845453386245665,0.2832020508791208,0.9992927870985225,1.920281742
-0.13533519709600542,0.14295655563873655,0.9994059278893881,1.92518279
2.028066575410217,0.2161717796707339,0.9993512561921325,1.930365301
-0.09162023207159366,0.2466119671603014,0.9993877128862508,1.935354504
-0.04839252468893386,0.20167567210223197,0.9997166531353023,1.940138196
-0.029726394083022557,0.25225861173737274,0.999498518176203,1.945743392
-0.07891819160831608,0.19304344414731855,1.000384023039126,1.951037534
-0.05714954238714844,0.2683213021110584,1.0003456976991183,1.956195537
-0.06051850907179604,0.24193108154938273,1.0006420771401885,1.96100704
0.04196171779383665,0.3505825116104795,1.0006652224637878,1.965858424
-0.148409113582199,0.17253994204763456,1.000782574447182,1.97077353
-0.047047922189697125,0.2279318381413093,1.0010510141580553,1.975651625
-0.05817732432303329,0.2307680530937057,1.001043183944818,1.980735384
-0.0874475536979869,0.20179632951595405,1.0009820806134142,1.985705975
-0.04665518343755082,0.2457125142037514,1.000715620142412,1.990924579
-0.04472085760330728,0.2255134655532876,1.000376478176771,1.996454677
-0.04414919234791305,0.22512937650019324,1.0000167473298285,2.001122965
-0.025621672878630295,0.20888136874899668,0.9995139013936645,2.005909584
-0.043342654365966904,0.2310179630621625,0.9995318451802625,2.010891145
0.03682678359680964,0.2887874901169719,0.9990706374280465,2.015936662
-0.15350146540989482,0.14056709192766928,0.999205290420796,2.020816494
-0.008760416200638041,0.23329261298551976,0.998581931253833,2.025805107
2.0386676573755267,0.2216830657721233,0.9988827318891969,2.032921586
0.25120453424786143,0.22097809578254551,0.9991773962617541,2.036661299
-0.06719178249736436,0.2500107946794748,0.999102585467214,2.041370878
-0.06350977427284846,0.2573861363843874,0.9991237530024192,2.046156887
-0.0433871183798508,0.26335377499948764,0.9992311715397625,2.050989371
-0.061568634316298415,0.208158539435235,0.9992528642551938,2.056211195
-0.05542022043274646,0.23120864685559514,0.999861403053192,2.06089087
-0.06468526908343843,0.22997577759012514,0.9994278224841232,2.065906338
-0.03118091030794532,0.24024896526150347,0.9995920300086046,2.071027265
-0.02492290691245744,0.21576186922345728,0.9998667225110307,2.07618526
-0.0715235858311501,0.2328298827820495,0.9997594466607963,2.081074555
-0.11083692276059914,0.15068612243091595,1.000314258942016,2.086021293
-0.2616825946989388,0.28746910287415967,1.001124793696858,2.090945916
-0.27424403982056994,0.36086347000710467,1.0042057153637078,2.095902253
-0.17902294885475634,0.2892159095513999,1.0095138732048685,2.101928362
-0.15227951490020852,0.27721053133335466,1.0161394020489734,2.10622448
-0.1348118130464212,0.23498543765866542,1.0247316184222235,2.11149588
-0.08927881670965998,0.2681781599325379,1.0331227351360777,2.116473232
-0.06397518750242931,0.2738861272498109,1.0404400566600045,2.123035979
-0.06818966682701466,0.24138527801251927,1.0498494947464614,2.127186752
-0.03047041239654668,0.25480407522921605,1.0570973227756693,2.133029977
0.04454333826827652,0.24459911015112212,1.0630531915005068,2.138758771
-0.03087723946192472,0.23207164540749345,1.0675783643976051,2.144023998
0.04908623977304569,0.25726406521933903,1.0704079240547903,2.148789086
0.0006280214380691221,0.23558698871201772,1.071482155451994,2.153745232
-0.0006503218719280494,0.2632889838415303,1.0710192959553921,2.158913289
0.04194214268988079,0.2241091120643839,1.0696031451076207,2.164502744
1.6371637820670528,0.26171486401681365,1.0663027856903993,2.170045614
0.4240165206569464,0.3051950048440124,1.0619157594954385,2.174446815
-0.006026073910949677,0.27831988315989536,1.0571672114611723,2.179134511
0.07146376336721523,0.3149697249944757,1.0511634067054774,2.184210364
-0.28598997162174744,0.24606434126608756,1.045765377560127,2.189954738
0.05190617876174923,0.2741901831372144,1.0405689098056445,2.194992577
-0.01956833193366692,0.25267283785863537,1.036068325489747,2.200986129
1.9455870469196008,0.26517666844919996,1.0322010372951091,2.206663669
-0.06803400598712937,0.249995975561818,1.0295562232612299,2.211483869
-0.13811202628922672,0.23912739943444858,1.0268010480716259,2.216193614
-0.07909310975920297,0.3267219454181857,1.0251534102584445,2.222091478
-0.11115253265845372,0.298773442456538,1.0248473445824149,2.226732995
-0.0060613907177510685,0.3176602037425944,1.0253790513149663,2.231602971
-0.04862337913599907,0.14800696503039873,1.0266093674512355,2.237997002
-0.1733955619860492,0.3728775418157251,1.0286645054200807,2.242031727
-0.13640524760261594,0.31548946940956957,1.031062480252012,2.24692592
0.01741945332178535,0.3147916134256526,1.0336605280372884,2.252099845
-0.02867081947778051,0.16718434310483232,1.0358873302809417,2.25666871
-0.17993961429049674,0.357866636367938,1.0381199612004122,2.262322952
-0.06713043172050967,0.2998735887916913,1.040500399202263,2.267246971
0.05586305811529618,0.19940633085640352,1.04229914269744,2.272515428
-0.1591615752607259,0.3471777438089972,1.0436278635942962,2.277181422
-0.059220459845248236,0.29389082894402163,1.0442818530659643,2.281594963
-0.024759946999440938,0.2473059816551706,1.044920748699864,2.286318216
0.009955022629520159,0.27621385164177975,1.0443372076178483,2.29107919
-0.040552252661486585,0.30406034824235456,1.043845971134081,2.29580422
0.08315468591070582,0.27118252385190744,1.042964260698392,2.300949764
-0.12153396977701121,0.27509745230518623,1.0406977069182204,2.305861539
2.0222643689029183,0.33578270853632497,1.0391717429521385,2.310913175
-0.013568633500660409,0.30621862203356515,1.0378163793508701,2.315739906
-0.1495011106005367,0.29474433149361345,1.0361095537974494,2.320788832
-0.11090341537307837,0.29589828897423764,1.033975310276174,2.325731818
-0.057312655517611805,0.3342510435949176,1.0328219618012144,2.330860302
0.03626610056663792,0.3353741755323023,1.032203276049677,2.335985569
-0.16815441776178286,0.25198044731223973,1.0316799142016269,2.341287475
-0.10958832971424742,0.35644349460447955,1.0312681769331122,2.34571593
0.036238686517238716,0.2859174279798252,1.0316675980083212,2.350514839
-0.020786072450072544,0.25667098765604623,1.032391189430213,2.356189403
-0.11916934547633747,0.29499796566961856,1.0322829215435423,2.360540624
-0.053073116397553396,0.2975452475630984,1.0323281348131041,2.365402393
0.0827547659920151,0.3113650659794881,1.033732856177187,2.370724848
-0.11825191027439672,0.29013570530726385,1.0339065454967955,2.375613361
-0.10062762994575564,0.27329499722098216,1.0339641728257685,2.381131407
-0.011250345696933072,0.2967109305192699,1.0348028243993173,2.385820838
0.018206745643091972,0.2740423382999193,1.0349640379268636,2.391151729
-0.16912062039508358,0.29897544604096826,1.035122749241469,2.396056313
-0.09934016857182747,0.28416270059805204,1.0355333856868376,2.401442881
-0.06942919943148125,0.21892876837889486,1.0360661374890763,2.406000726
2.055410827784725,0.3029270115074136,1.0365048424870513,2.410798965
-0.12830329955397674,0.3253808409435608,1.0367638559681338,2.415854821
0.008761877876393862,0.29412056045281726,1.036989443247723,2.420652794
-0.13402407765689303,0.26067809147632853,1.0368759284753615,2.426485915
-0.07196684690490729,0.34188978416703286,1.037334196779833,2.431073297
0.01487870731459719,0.3166104909256845,1.0372352346988847,2.437183112
-0.05885325120847794,0.24865780757252248,1.0366436308288718,2.44175454
-0.07851868361946181,0.28100206360129193,1.037249847416409,2.446709852
0.030262568356435877,0.29656798809166746,1.0376795103387284,2.45122407
-0.103280126632775,0.3064669996459399,1.0370817250379325,2.457537467
-0.04856092784192372,0.32400782832505837,1.036711809978717,2.461136445
0.022288057660114064,0.3007940032966216,1.037069648493332,2.465911986
-0.014549858135043395,0.3496264377825128,1.036917264049639,2.471000131
-0.15644528424865273,0.28591048824893434,1.0361252246308945,2.476844456
-0.09752582782259271,0.3131343609507724,1.03672844933389,2.482710012
-0.012009951534028757,0.28759022823254493,1.0370603482552678,2.487447251
-0.11208105950306924,0.36557221382538235,1.0367664366626854,2.492397243
-0.07301367953943061,0.2805306740035976,1.0363547386933376,2.497143646
-0.08204545065108904,0.29015066706629544,1.0366075225985638,2.50208578
0.02136866487342445,0.30498875150123367,1.0372363627500636,2.507391941
1.6840862574580195,0.28273736303850533,1.0367552733961671,2.513682085
0.29389733065863594,0.29314130307593944,1.0364746180942208,2.517120914
-0.12067462317349816,0.292852099135434,1.0363765558161073,2.521886267
0.03213304765194468,0.28511367595748677,1.0369183597910312,2.526642252
-0.012980671926854627,0.3935532736991597,1.0369438218785036,2.531666096
-0.17068214546884514,0.28892731778237823,1.0361692569601157,2.536517141
-0.05483454590650665,0.30633502437217225,1.0364165277214055,2.541384689
-0.08675648125445223,0.29604826106722854,1.0367199117799177,2.546174445
0.02123370673576754,0.29094151904735244,1.0370858962406804,2.551058364
-0.05506263470457215,0.32690085655617396,1.0376545689609191,2.555935783
-0.15254804333533256,0.30415798809801764,1.0382203071260896,2.560696936
-0.03195868919794999,0.27791902081424524,1.0386698751235146,2.565923905
-0.07063049180163712,0.32012811755913617,1.03936986718228,2.570554718
-0.0043095096257128275,0.2998608632704565,1.040291439261309,2.575615327
-0.01671054772691136,0.3194153029996411,1.0402652982242435,2.58141507
-0.06350073035996776,0.33102105303563956,1.0397170140724803,2.586314569
-0.045276330927365126,0.3159889001230125,1.0398060668114808,2.59155748
-0.08812066187069519,0.30745417648836165,1.040571165698548,2.596325125
-0.00019188273129443906,0.2900881669834241,1.0409224292467723,2.602253184
0.04538653723064778,0.3432112325631816,1.0408678758659673,2.606602
-0.17602765585339591,0.33718292527209465,1.0397915033618335,2.610947723
1.6926609339502852,0.2902977567679174,1.0389942759469208,2.616538269
-0.13208991854712887,0.32036254816650034,1.039020989779447,2.621838482
-0.0861424018598203,0.3216028030446165,1.0392868588145128,2.626172695
-0.10391200293010977,0.33317055358963205,1.0396164322913368,2.631437988
0.0007134262793609906,0.3320716402011647,1.040113665060989,2.637387699
-0.11228176402590626,0.32494652702490734,1.0393908848245048,2.640862119
-0.07228646757654955,0.3142148334680388,1.0386375011345388,2.645774327
-0.058024797373841176,0.30632062345108363,1.0377366241482415,2.650759815
-0.06727871767167645,0.3141748072512357,1.0384871385565924,2.656411158
-0.0913455758233536,0.3231577628902524,1.038774601104682,2.661624192
-0.11884283744203114,0.3614225957932363,1.0396500803857223,2.666171614
-0.07642684924868763,0.3320593875604368,1.040578599870672,2.671147423
0.008085719912047314,0.3351263781441787,1.0421868344712701,2.675965573
0.004019238293883339,0.26869733638489135,1.0412757512319808,2.68181166
-0.11665525890465608,0.3206927854845891,1.0407151071071268,2.686779137
-0.03926325196243074,0.27091245390258356,1.0405382373155159,2.691920725
-0.06804879562183656,0.30993020356590956,1.040258970660693,2.696478272
-0.04492730706228049,0.3094945775473911,1.0405787821203953,2.701808813
-0.07024644039854702,0.31500125483220925,1.0409564408874734,2.706785742
0.1733800332699603,0.3953467282313584,1.0414546568176852,2.714666566
1.8461578354533448,0.25305919420704903,1.0399651270691772,2.718766002
-0.04958170333632285,0.30537502337874817,1.0390724614968645,2.722057011
-0.10221819772558997,0.33898225562677387,1.0385350750980236,2.727050713
-0.05024795806671323,0.3394507975055116,1.0383150238817145,2.732450324
0.026311750954550555,0.27657421491196527,1.038538404375308,2.737540487
-0.023251497096772305,0.3877397092101196,1.037934019433888,2.742546843
0.16308979104816124,0.378627217351527,1.0352030456170918,2.747053819
0.0050483717910631875,0.33166991639590887,1.030920261604884,2.751946577
-0.20181538785629405,0.24767035408221827,1.02559994440571,2.75703934
0.046021586420213464,0.42044603865849645,1.0177597470683493,2.762428235
0.10121496036602512,0.26391861218710444,1.0109662856953634,2.767851425
-0.2072284602497422,0.48015655466615664,1.005204121659477,2.77269557
-0.047147980763270356,0.30108044762640335,0.9983787296746619,2.777806604
0.08766728884476757,0.2088034790264663,0.9920562305416093,2.78327515
-0.12989039805123465,0.38739276204726275,0.986492197671947,2.788090999
-0.05283761563080513,0.34420419327668467,0.9827983099590517,2.792908298
0.08320065198200709,0.21529945715015997,0.9806818044621899,2.79862851
-0.15522669276810533,0.3452146029724703,0.9793438820277405,2.804892732
-0.018626741800792098,0.29354267888171404,0.9799672517459663,2.809860864
0.02818046136727815,0.24870537455601727,0.9817907000537652,2.815597376
-0.17603228429197457,0.33904180028842895,0.9847882434839496,2.819980265
2.091806359037008,0.26492069054301354,0.9884038758402034,2.82463827
-0.16796185970888988,0.37552356767656275,0.9920481069304542,2.829637165
-0.07283879612781172,0.30291154826843913,0.9969254669454521,2.834356788
0.04936249529363745,0.2829616976965244,1.0005933768014992,2.83997276
-0.13819188204631294,0.34918813203055327,1.0046869978534694,2.84491456
-0.06280203540594669,0.34222332644165465,1.007908058069748,2.850728333
0.015266040842392277,0.31074277898159935,1.010279152731267,2.856281131
-0.14648415553492486,0.3170905928940875,1.0121550907354482,2.861801309
0.02908068580022118,0.3380373962192048,1.0130817102809777,2.866593158
-0.10103936299670785,0.29741209676096214,1.0128272261132278,2.872047823
-0.05688596428844118,0.3025822827862067,1.0121981898429016,2.877089983
0.005391795012818199,0.3611022539837326,1.010503221705047,2.881847746
-0.1103458007843588,0.2456091713065262,1.0084057761800045,2.886683505
-0.0441971045218719,0.3324040098572238,1.006441694318858,2.891593192
-0.013071129413905706,0.4022260740751767,1.0035576833169781,2.896371341
-0.10257259014923653,0.23392109193113578,1.000980655404698,2.900972865
-0.07887490976552593,0.3164014480453243,0.9988505242304521,2.906308934
-0.013540271144639147,0.41965538914732403,0.9965519810793673,2.910905915
-0.10059479083904713,0.16685522155130122,0.9946534656321084,2.915537041
-0.03677282776181317,0.3208725739171076,0.9940475765671315,2.920223265
2.0219471346656257,0.4346880504406373,0.993319614987586,2.925273008
-0.13567309890237556,0.19874205195627262,0.9925917601398716,2.930198286
-0.040765335622060944,0.4281014559473408,0.9935329341671267,2.934799115
-0.0998941393839805,0.24732109993684628,0.9938718375554788,2.939658367
-0.04428340658719454,0.3598221129980065,0.995512840893187,2.944547887
-0.042360804088421675,0.45293378724130146,0.9967374708263552,2.9493813
-0.07395734784037812,0.13394342373371082,0.9983041121099491,2.95398105
-0.04061748120946498,0.3778353735107975,0.9999335530477993,2.958816295
-0.0327443336833867,0.4836736838586278,1.0011850155547284,2.963673277
-0.04413166841643995,0.14942174708847744,1.002626326457989,2.968497931
-0.04500891518580933,0.36682500451197575,1.0038201007290135,2.973468951
-0.010791112845301761,0.504605505431816,1.0047186927736869,2.978221861
-0.08377426965817591,0.11945606414153673,1.0048348812909107,2.983178835
-0.05799960087623463,0.3352912915267321,1.0051051574093777,2.98992573
-0.01770382777235424,0.5239572643874634,1.0051804905411221,2.992910925
-0.05518777815452273,0.17597842297218436,1.0048930208777944,2.99777936
-0.04904458103962315,0.3719865200596384,1.00396240839721,3.002677411
-0.024832864744483752,0.5089105778748955,1.003112279946547,3.007721383
-0.08997437493553256,0.15551922844618665,1.0023878669784676,3.012653128
-0.06316116988117543,0.3566124773933556,1.000958112908678,3.017701656
-0.0075733020874561435,0.33877682019479033,1.0000231038360894,3.023291199
-0.039748436590204966,0.3308189948906304,0.998773756868313,3.027834715
-0.05579623527484116,0.3484969889146864,0.9987151202624895,3.03307644
-0.06599770066609861,0.34262008557514,0.9984149988678698,3.039567917
-0.07584597635314001,0.35329050987249894,0.9984467885686801,3.043199522
-0.04629709984159909,0.3247416768386196,0.9983692389053344,3.04792878
-0.08238292422414677,0.33805848894407753,0.998089176510564,3.05302987
1.6564595145320404,0.330310032819586,0.9984624122609934,3.058058977
-0.4483805404077353,0.26555235983147174,0.9993549610756912,3.062635175
-0.23236763542334626,0.3108347782573006,1.002995265453324,3.067615623
-0.1706917952460186,0.3228320729120627,1.0088823812519483,3.072558345
-0.1798596475727635,0.3165145465572007,1.0169895943519294,3.077759958
-0.13588157706140175,0.3196612429090069,1.0256155613905766,3.082886165
-0.10851836009514929,0.3741752647313781,1.0347573039045264,3.087542735
-0.06272174868905156,0.3535824008432607,1.0440251454598402,3.092492859
-0.08279163981563077,0.36538893166936537,1.0522313066453899,3.097602297
-0.02324434217231454,0.3922961206743893,1.0594496179555115,3.102625983
0.020877550098969792,0.39204349377337616,1.0652162828726912,3.107560863
0.01986923872801366,0.34284264429397543,1.069431857061204,3.112644948
0.015806200391065797,0.33893532787750696,1.0716474675174035,3.11749286
0.03582297834316335,0.36501680052717583,1.072285645087137,3.12230425
0.058713000201509935,0.35528749009952443,1.0712214530185022,3.127496145
0.0255031462437612,0.3683655320936355,1.0679360101496052,3.132326903
0.01803049360995084,0.3469861962524767,1.0644988157945314,3.137095032
0.002907307186547259,0.42037233901806315,1.0594081262189565,3.141803215
-0.006504675236670277,0.36679562779308483,1.054435002313934,3.146785928
-0.008367045355249094,0.36378414146569915,1.049039760842456,3.151702683
-0.07444074785108067,0.38900424715775167,1.044065193457825,3.156649926
2.006342600392724,0.35085277949744426,1.0395866223199783,3.161590234
-0.10684132404874735,0.35119766524844787,1.0354707624509698,3.166822528
-0.07277028951435535,0.3988735186330899,1.0324748646120185,3.171704496
-0.08958703177631806,0.3722915129323862,1.030252889544786,3.176665406
-0.09629386320435328,0.3710718663113763,1.0287121478883703,3.181612947
-0.1106256002026744,0.3789390251969066,1.0285822956706656,3.186779136
-0.09856680657299369,0.36302458938190796,1.0297020013730447,3.192636964
-0.12376753568740428,0.35534372429252753,1.0312148058207422,3.196753632
-0.1329768774310824,0.3682012162749546,1.033709778074889,3.201749627
-0.04598108665207494,0.45695954576859366,1.036270413759946,3.208075276
-0.13547271106205283,0.31725928906800116,1.0389103879610733,3.212922028
-0.06891041668624416,0.35810033641070765,1.0417213201891629,3.217915025
-0.06972797641932588,0.35497072672098545,1.0447255075889874,3.222829739
1.9726240081751287,0.35501901194990654,1.047252262347934,3.227944299
-0.059021199278060724,0.4143271218267623,1.0492667274260583,3.232988043
-0.0446021547580959,0.40713401250524556,1.0511416472257518,3.238601781
-0.0413032097884568,0.33656489080895086,1.05201978476333,3.242921879
0.01666782563211411,0.46044397636765966,1.0527157510888492,3.247974898
-0.16257334064146994,0.3784763314533072,1.0528029912331474,3.253077201
0.01575096809629361,0.40821350944486845,1.0523752538992024,3.257991063
-0.012500791430824484,0.364221706017178,1.0511720912565876,3.262898771
0.033101536269333265,0.44751676951371777,1.049912074537597,3.268034482
-0.18953697671322403,0.32770339501731127,1.048983225733251,3.272841749
0.016664724318913422,0.3526527323655383,1.0468816358957347,3.278485586
0.01286946449099053,0.40020449703465694,1.0455624358850246,3.28326849
-0.1523462490865375,0.3322919038909013,1.044253925087009,3.288041401
-0.014628260766704168,0.3876203303898419,1.043155344804747,3.293023938
0.04822285318372514,0.4397725886518391,1.041878345404813,3.297816456
-0.21818469409486096,0.3685541878399787,1.0407668493653484,3.303076092
-0.01846356870179137,0.3436425342515738,1.040759765398803,3.308027677
-0.002356578849336233,0.49440732755370853,1.040001113598046,3.312865614
-0.23873025768199568,0.33678508760143017,1.040257390933483,3.317713163
0.0016607357955362896,0.3707595641596361,1.0409233203803574,3.323002328
0.01303507518829911,0.4641993103439306,1.0412925729682254,3.327504172
1.8870543289920922,0.36961863682835067,1.041842435366811,3.33260385
-0.05529617205069223,0.37768812630177817,1.0429791344167139,3.33758745
-0.07689303030751964,0.420213508495395,1.0434052641048586,3.34274989
-0.09414425303657117,0.40781883929002793,1.044997058661684,3.347662188
0.047538608951007665,0.41903366025763605,1.045521258749349,3.352804511
-0.18186396796637505,0.3578223053929444,1.0454575945942985,3.357785787
-0.04599302387523464,0.41611616693982173,1.0465771316733143,3.363437487
0.022607418266044076,0.36948364309555193,1.04718198231205,3.367776113
0.014618777048038508,0.4979473374115893,1.0466486546586626,3.372799942
-0.18884218200365563,0.3766206155711784,1.0468113873683271,3.37765388
0.024553096760070645,0.40961479305257903,1.046895554199505,3.382312893
-0.06540688872712061,0.42726347976162654,1.0460728323457962,3.38732789
-0.029262282427289087,0.37163885428406596,1.0460189744725095,3.392289276
0.0886719387942785,0.4638051736338422,1.0457845247546185,3.397324492
-0.1736020944607644,0.35783884407928573,1.0452463619700945,3.402059489
-0.0012736815935267508,0.447096260190195,1.0449970761042433,3.407176103
0.01355218471921215,0.4398826096606389,1.0442232256464785,3.412286004
-0.1988464586522001,0.36637653814548615,1.0438090818869394,3.417121193
0.036652786303908086,0.3817155682891888,1.0437064516175174,3.422069395
0.014156468013767092,0.42594568239351766,1.0428732234111884,3.42703686
1.8758871294820594,0.33625032139433075,1.0428498536708732,3.432097942
-0.026545745450586983,0.45475373817819664,1.0432200279271264,3.439075281
0.01565057330629837,0.43272907089943263,1.0428204233911553,3.44200152
-0.19092093275241045,0.3648265887896113,1.0428470293525307,3.446877112
-0.003021028632942539,0.4402873581785798,1.0430537699026883,3.45191481
0.016334271701140428,0.4770996465083107,1.0432403598096993,3.457103705
-0.20588468967785684,0.3692121178224702,1.0436783222251143,3.461977403
0.026684977939533526,0.4496248724457099,1.0441126271059642,3.46688133
0.06346314521856641,0.4435681112454996,1.0440650988899456,3.472100749
-0.16558095135359513,0.32939417233644663,1.0438841405675532,3.477083436
0.002260287088250589,0.4691448728647148,1.0438156242766297,3.482008802
0.059492696428902175,0.4988843744322838,1.0428807831504936,3.486991644
-0.2610900929157485,0.2953368111925089,1.042941583079466,3.49207035
0.03141554499036675,0.4717985594492448,1.0430696955542733,3.497052126
0.2696926678564102,0.4234692980840908,1.0424003953076388,3.50205767
-0.31982340464129666,0.3518864219141873,1.0415228803327221,3.50715371
-0.045055605826816426,0.4754551363401548,1.0405837358231287,3.512079698
0.19891623526558316,0.2844098883794728,1.0390402909179688,3.517124383
-0.25407378880742754,0.37862139627070535,1.0362948834902004,3.522155439
-0.03115385352423766,0.4620448419509129,1.0345594370836069,3.527052846
1.7377946871471677,0.31999508446887387,1.0328758572079575,3.532576118
0.3659462352128331,0.3875075503215649,1.0306480250063,3.536914994
-0.1482331216236792,0.47546945893328113,1.0278640370117071,3.541992847
-0.027108254131699122,0.3595745882539566,1.0252156982681375,3.546972047
-0.04202101844893748,0.4389415276535435,1.0227305392465975,3.552179511
-0.043812405363034976,0.47208015580302254,1.0207473617070335,3.557209447
-0.03852907049450536,0.4074505932503189,1.0182924182199247,3.562049497
-0.02578247817145632,0.3932055731276994,1.0164970198314172,3.567709931
0.07558816730527329,0.47204074022835496,1.0142429762952452,3.572382972
-0.11653459300476282,0.3739972221604752,1.0123600715246186,3.577680102
-0.06767238828677911,0.3782699668109856,1.0109186740399905,3.582518493
-0.05456179066607643,0.41486083823119957,1.0099037448015122,3.587319019
-0.02428685673512365,0.4143448092403682,1.008444702144596,3.592948459
-0.020570141349167938,0.4126268033600942,1.0068771420160423,3.597931515
-0.06034693817155377,0.3871359924392813,1.0058334270391402,3.603198017
-0.056054541179816994,0.39207328692030685,1.0048774633440096,3.608189487
-0.04953823783772586,0.3944020265178446,1.00378226905637,3.613170106
-0.07586702377985854,0.40245815531935253,1.002853473010774,3.618096129
-0.06275479621504776,0.4415898010288457,1.0024610576540456,3.623024681
-0.03917682153660325,0.39418371489865534,1.0011272062133716,3.627844506
-0.050932818513419256,0.3791826770337675,1.001021749854615,3.632852294
2.0110917985824743,0.4146436323890705,1.0000058106464977,3.63868419
-0.09412521181593123,0.446110361569197,0.9996558037114026,3.643506074
-0.0670315928133218,0.44588671258495105,0.9993129892499876,3.648427295
-0.06196286767233718,0.4396248401342253,0.9984583467808202,3.653181603
-0.04873235015329703,0.2783774433378736,0.9983820113672853,3.658319136
-0.3151632868779339,0.4731189838170458,1.0000481279217142,3.663285977
0.05642729200773385,0.4795828287553202,1.0033155780892753,3.669694851
-0.06667835130190715,0.5180497691709292,1.007637825459229,3.673085309
-0.11439655714842817,0.5330004753711043,1.0125063934169938,3.678038439
0.05435286749670737,0.3614371988552723,1.017870931040974,3.682934186
-0.30540332757582817,0.49734944407718257,1.0226829424206103,3.687850689
-0.1704666967699841,0.3882212143972482,1.0286803427677218,3.693185387
0.1892509787661835,0.3868913079255955,1.0343040264494314,3.699118581
1.5943861569567006,0.4908299577730562,1.0379992418526829,3.704573134
0.20566483323105686,0.42402642761103343,1.0415546560713855,3.709703755
-0.029203736516744405,0.4834485205761206,1.0450993772241934,3.714100692
0.03731423295905501,0.4516063899123502,1.0469756424833407,3.719112346
-0.11176062609934005,0.4410031496045641,1.0479819156874242,3.723683934
0.03950873658820511,0.46254008975871874,1.048341424999711,3.728725164
-0.13329635445337734,0.40653498239858615,1.0489379315404859,3.733609687
-0.061716504764452236,0.46557081053250726,1.0478360527220147,3.739308408
-0.0016097437666838235,0.43524998704846934,1.0473210036542921,3.743968907
-0.06824155729559435,0.45003327412556565,1.0460376361239492,3.749061523
-0.10353197096061909,0.395593001256423,1.0436873838261471,3.753715839
0.03534429509335449,0.47504831914312856,1.042220801307835,3.758764734
0.03614328067815321,0.4790609857520784,1.040737670025892,3.763780886
-0.24133525070356598,0.3857145321247286,1.0391884259593578,3.768704742
-0.0015673952756979008,0.4773447027947707,1.037514282691354,3.774030391
0.02276352067326829,0.4692623591188921,1.035902331068283,3.778814067
-0.1870878295322463,0.36529345763471943,1.035457930062062,3.783784147
-0.055305783760697856,0.47636865628081915,1.0345809520521136,3.788900304
0.050584050766909534,0.5135469396367038,1.034221147285915,3.793471433
0.0010765847236023332,0.32283351019788237,1.0334048112840153,3.798584034
-0.19196567979504367,0.4463757687024269,1.0322327805251328,3.8034783
2.0130325985787247,0.4909248923664347,1.032144079491641,3.808256463
-0.058461043338652575,0.49413641042280826,1.0324459605466352,3.813284403
-0.07162016801116532,0.30452198397213565,1.0326059342361429,3.818402885
-0.13649364321414295,0.507761291480805,1.03229151483391,3.823094529
0.001915374129514348,0.5176168781562855,1.0330878245509703,3.828033718
-0.04574191223116267,0.3303075083302543,1.0334521416156837,3.83295851
-0.13854966851001782,0.5085299090231268,1.0336106676699464,3.838818292
0.02447607914073401,0.4936038603896316,1.035092728740947,3.842996453
-0.05425799649999713,0.3193400808756087,1.0351620271034734,3.847854871
-0.11105294513546572,0.4929416514237171,1.035063622662904,3.853010096
0.0435193156034038,0.48908361250362864,1.036009305572993,3.858119714
-0.0371409679862435,0.2934513764192878,1.0358979854695074,3.863017081
-0.13791133368540345,0.5414135223344692,1.03611931699916,3.868247834
0.034615368099648325,0.5010508692686443,1.0363847101647143,3.873764089
-0.04837872468216835,0.3456659959175565,1.0364275167058385,3.877960011
-0.12161035519468975,0.5298429577677353,1.0362144949694783,3.883222893
0.045005194006896836,0.5281981521088415,1.0359337081202882,3.888029113
0.016441313113337745,0.33169167483271594,1.0357357380324799,3.893019152
-0.21994564232022612,0.4798387728809113,1.0346148211297954,3.898145881
-0.05388960963627959,0.5018673495360322,1.0343813983710577,3.903518145
0.08774621382423019,0.4127589053194805,1.0344957272708508,3.908752848
-0.13452987848775558,0.3350036090320316,1.033421763222667,3.913532368
-0.05774445159079681,0.5191392360991107,1.033220102239684,3.91868737
-0.004278112639075619,0.484432677213558,1.0332201601873217,3.923744097
-0.019331001029069955,0.327137414290647,1.0334112482658642,3.929138197
-0.10102067726608904,0.3968381151861598,1.0324722999533034,3.933892049
-0.12133160306395945,0.5262393320341612,1.032811542492925,3.938967429
2.162142367806762,0.4601794999102854,1.0332600406157044,3.943883531
-0.10085518586528865,0.30050083046454934,1.0325914072127826,3.94883888
-0.1574651943554135,0.5833943377036552,1.0323485953553944,3.953942
-0.015323503226546435,0.4761802284679443,1.0322692045838244,3.959024689
0.017489494410083673,0.3695159139027955,1.0321638940745697,3.964199635
-0.180750767221313,0.4053780600094115,1.0317874072027358,3.969079662
-0.08384456943164076,0.5435362148547442,1.0312957109533893,3.973929167
-0.0010802296326490983,0.5042828243454343,1.0323827885567223,3.979131294
0.04475692662027676,0.2930645699200798,1.0319805583977024,3.984076062
-0.03203741860630608,0.4641000885439746,1.030180538916765,3.98906613
-0.08168594482972119,0.5880354236957871,1.0283410687396952,3.993967194
-0.03558229431947664,0.40405081913318736,1.027235260001919,3.999207564
0.06184210450686264,0.4089543546017813,1.0243076536040228,4.004160356
0.026852861512027516,0.42633606753435604,1.020074313120425,4.009035238
-0.14906227647488043,0.4299457486045084,1.0163927184984027,4.014939182
-0.0026390790957010503,0.4574257832996096,1.0112923759080825,4.019749003
0.06731139153726186,0.41568012325790565,1.0063389120928723,4.02450905
-0.15150615212862306,0.4100098040698398,1.0014831106224173,4.029646497
0.06807709494582143,0.41868154001397745,0.9963235346779074,4.034426496
-0.16400783023872836,0.45941667165743527,0.992113056197964,4.039834725
1.678306017852634,0.42194212957967137,0.9880119755058971,4.046772138
-0.0018129828713573971,0.47109157499901194,0.9865248041613716,4.049089921
-0.16854483074603463,0.46626294823802467,0.9844344969758025,4.054209778
0.03920665112981244,0.43429248125830994,0.9846790973469037,4.059705185
-0.18828114196227588,0.4309029398672079,0.9847636113430903,4.06452434
-0.04932447229114777,0.4350908765137042,0.9865023674335685,4.076854962
0.056619223140275024,0.4713471754525941,0.9885000390663717,4.078866208
-0.16794617419863564,0.43357923167299856,0.990784412425329,4.082811617
0.04390984450596311,0.45615570873934436,0.9938480494253654,4.085438659
-0.1469373028922208,0.4760913394763836,0.9967756640058766,4.091176458
-0.058197897505484444,0.45882482633920074,1.0000758111853956,4.096195219
0.04961770171731488,0.4582381951027763,1.0029283711136303,4.101298002
-0.16543313049089653,0.4678954684649967,1.005059564001883,4.107178321
-0.07479933701086347,0.4680165413727409,1.0065219245004524,4.11304928
2.0701736566540303,0.42362392687175754,1.0080253132061647,4.117166186
-0.19247539026097696,0.46172684649001516,1.0084490213895008,4.122807463
-0.06689217697111162,0.4762499508686406,1.0077534343230279,4.12717825
0.04407299400512862,0.4581919444540916,1.0073208659368205,4.132742368
-0.1484095554777589,0.4955736871569509,1.0065083605181975,4.137715672
-0.05846163236063647,0.4764516726773723,1.0052142534380997,4.142508087
-0.08880653909360722,0.45242929565845336,1.0032267639884729,4.147629648
-0.08930357448540702,0.4835149777409787,1.0011656250163605,4.152703721
-0.05258519205274292,0.44559158695960277,0.9994098863093146,4.158219167
-0.06333986197152454,0.47478628711289955,0.9974113276108545,4.163008681
-0.2653497223917591,0.4798302167797102,0.9971090694206034,4.168697893
-0.058797276850106106,0.4417458032445896,0.9985687775309078,4.173949819
0.08258356195031243,0.45265553161904193,1.0002427011884167,4.179515288
0.010049622586693237,0.4733179876767102,1.0014062388667748,4.186456878
-0.21187126157455394,0.4486521129678373,1.0034380678996195,4.190868688
-0.3095358028758604,0.5614597568973765,1.007487098107774,4.196439826
-0.1915638969881614,0.492691312658111,1.0130145903995031,4.201146979
-0.07162265426760787,0.37226706237170515,1.0197311789403376,4.206483101
-0.043832879988542496,0.37469329383727557,1.0275713572960015,4.211216714
-0.06841678424281993,0.4461806702559749,1.0352340805624305,4.21593452
-0.06042669167650993,0.44670305460003507,1.0420447317525057,4.221721384
-0.0475668218135738,0.46875043653460924,1.0479679745326256,4.225552346
-0.049266409023805906,0.5186121063207466,1.054410134358392,4.230205162
-0.054132129471716375,0.499748665219216,1.0588959434005971,4.235277207
-0.01601242166948562,0.45474259987982446,1.062167627880135,4.239819761
-0.031234695268654467,0.48434883859114736,1.064804206082049,4.245627579
0.018169502854550382,0.48246882771104616,1.0653373179148315,4.250149791
1.9588749706150914,0.4916996180873531,1.0648879573153047,4.255063838
0.018307692543537514,0.5111422084835227,1.0631375666634413,4.259870029
-0.06808782316669595,0.4788183847289283,1.060458007749657,4.264715626
-0.014023512999603423,0.47165640809620213,1.056816701833939,4.269948748
-0.010337583419866512,0.5048723322847574,1.052458066241215,4.274270556
-0.03343490173891917,0.4978807708304056,1.0485342284350452,4.279030399
-0.01675862350347239,0.4891065414845763,1.0442014520671736,4.284008027
-0.05536509379164002,0.4622507478716624,1.040844350437779,4.288975148
-0.08873520104709803,0.5113210020812454,1.0372122532765804,4.293960641
-0.07143943051518326,0.5055478430816872,1.0344665969284184,4.298938805
-0.051329843267280045,0.4800520303447791,1.033022047297473,4.303721644
-0.08974912701310488,0.47487229603645087,1.032059629988951,4.309053138
-0.10761105070848746,0.47207818379291,1.0320270653855343,4.314390525
-0.10216121919832608,0.4764887621020979,1.0322934192771513,4.318844608
-0.048875406845698716,0.449568901624541,1.0335678684722058,4.323933948
-0.10812918912171451,0.4710588668569056,1.036088558103166,4.329122703
-0.09264031225668079,0.4998056438349268,1.0389162568294215,4.33387879
-0.06500624657863402,0.48515527306304096,1.0414572767951995,4.338812005
-0.049763555673261774,0.4646697101630299,1.0443227147023626,4.343677306
-0.06147882154267975,0.5040758199849323,1.0472256668557298,4.348954917
-0.0403503904662124,0.4697892841380304,1.0498367150191197,4.357257677
1.9793760181791298,0.5073712469120916,1.051571846963104,4.359261835
-0.11673831206758267,0.5229238809221447,1.0528713795944646,4.364027509
-0.061388866578600036,0.46873649043046905,1.0534380864660087,4.36870719
-0.056368364192722765,0.5210652034731428,1.0534643343372179,4.374106296
-0.03194259251454692,0.49179519160131135,1.0532181806717544,4.379728393
-0.0551448988618011,0.48868958778198773,1.0520086795612482,4.384726611
-0.032509242913506264,0.47174910597084574,1.0501384831824512,4.390682065
-0.046308617693650356,0.4783417247471121,1.048310715685902,4.395548144
-0.056294377996861766,0.44969930639583633,1.0464048539814312,4.399977715
-0.08661429226036457,0.49778161503860335,1.0440464291395397,4.404897308
-0.08158007270871344,0.441671915606698,1.0420939916022183,4.409930187
-0.06333262004743048,0.4797638450669561,1.0400597647347758,4.414804871
0.06767309411714016,0.5165262750616354,1.0381646717378774,4.419909684
0.11246385591168367,0.5521562172688598,1.0352515382533103,4.425521469
-0.03249596217159336,0.4441570039931563,1.0327748278832118,4.429885598
0.061799602989870105,0.5479523930341943,1.0300064548311276,4.434949468
-0.044968522308295025,0.47959309345052326,1.0265276537696808,4.439856418
0.10058732813172289,0.36675593564955333,1.0241687518953584,4.446989631
0.06305802659045788,0.6043261018144884,1.0194880112656193,4.449670586
-0.003695112028901411,0.4966011398124852,1.0147555193680515,4.45471503
2.004728365711596,0.47852885217001856,1.0093333182471058,4.459661736
-0.100681513868791,0.5225369333737467,1.0035828303468677,4.464517666
0.04009809873281167,0.3500280010739335,0.9980566576167105,4.469445662
-0.1335079669507714,0.5712952459138751,0.9933178390347721,4.475044073
-0.045660122163027554,0.45052630065323473,0.9888811889251503,4.479290785
0.03603809058726294,0.4101191315335218,0.9862250548748219,4.484078892
-0.165825919574022,0.5357193441745327,0.9842362102909941,4.48889793
-0.034987589814275875,0.44343552007752207,0.9835726255908391,4.49517995
0.05650496877304014,0.4529428772726373,0.9835505042296492,4.498820957
-0.12207194374632269,0.4773343548498887,0.9850983918134241,4.503525659
0.03967983485033519,0.4976092504483718,0.9876427611266807,4.508727129
-0.12382707615770573,0.4383375744803128,0.9905289950918769,4.513631118
-0.06116097066248672,0.48641461072324355,0.9942975566600452,4.51849269
-0.013550459863602874,0.5051526632913986,0.9974282251871927,4.524099263
1.9029969290639157,0.40962748607648886,1.000917313450569,4.528415343
-0.04772267941043847,0.5142349711062164,1.0041111771616151,4.5331293
-0.1275233350698309,0.4107583065256317,1.0064748375450272,4.538710189
-0.05209453439800341,0.5106374667676151,1.0089825005816984,4.544310137
-0.012219161786688549,0.608853409313751,1.0100738600631276,4.551315063
-0.11018074196499016,0.3667167463093736,1.0110917401479538,4.556934639
-0.05021434351847514,0.5120370887043658,1.0113359599596328,4.564414189
-0.25222628339024145,0.7503670453912511,1.0114936522979863,4.577052445
-0.012470608991724516,0.3725056759877662,1.0127543189679864,4.579655004
-0.14453668939637773,0.5223895677668497,1.0132825521947557,4.58295131
-0.10326694460996202,0.5101698599270531,1.0139790132507014,4.585038257
0.07921603516432332,0.543204701733047,1.0154740404622724,4.591973157
-0.24317911537884623,0.5052923050056465,1.0170056106632694,4.594427665
-0.144617423822531,0.636754130398225,1.0193362784282936,4.599922687
0.029407189996386533,0.33635640575335707,1.0215374692808599,4.603860387
-0.22884983629926614,0.5186254656733269,1.0244512315689474,4.608877224
-0.12402899632608214,0.6482654074649834,1.0286914903198887,4.613970808
0.10972517215364214,0.3927976123257666,1.0325212462594002,4.618779187
-0.18668852716575135,0.5148097303626387,1.0353125128623888,4.623606196
-0.10989589845477063,0.5341277522613979,1.0383802984433907,4.62841782
2.122935891186484,0.5127742567082492,1.041468845954024,4.634081179
-0.024190341999324114,0.5520273032461236,1.043182822309467,4.639523352
-0.12720629216197096,0.5501758196072308,1.0453171839218551,4.644214211
-0.016801808572215166,0.5360692170606167,1.0462428434342106,4.650616116
-0.04477032137905508,0.5095669810990817,1.0466053359611025,4.655033063
-0.0347041518691171,0.5397786342021583,1.0467397305262052,4.659795377
-0.005765974493113103,0.6165903186573785,1.0469317164307195,4.664474544
-0.05573335706741971,0.4337505532356959,1.0455394374845661,4.669578471
-0.05049094571106175,0.5591324333119189,1.0451288574920858,4.674406456
0.007585743169383482,0.6049440110005543,1.0432481528426767,4.679518796
-0.13569448136839327,0.4686346422105036,1.0422643469434758,4.684555536
-0.020628078828294937,0.5493622388134342,1.0413319487648198,4.689454515
-0.1409429732193052,0.525574082356503,1.0398723147082982,4.694230894
0.0011921016584996846,0.556742036987909,1.039143489070001,4.699115056
0.042790680603429235,0.6191009941595979,1.0386253371678162,4.704426759
-0.13533413049001805,0.4319495938482866,1.0374473535692446,4.708905908
-0.06307691519309645,0.5433401025391563,1.0379510770792304,4.714040983
-0.0024313997208310657,0.5770406583865517,1.0376068913854501,4.719297727
-0.10337698261138212,0.45802595461900597,1.0381726707521868,4.72409416
-0.08039205334923305,0.5301346949031356,1.0385171008170877,4.729073931
1.655123704256319,0.617733404608441,1.0386286095584132,4.734820252
0.2706860200391052,0.4593798126841161,1.0391875084622655,4.73977512
-0.09148760561691965,0.564857671624459,1.039493919486522,4.744615179
-0.027062277226140206,0.5909846252943428,1.0404270161663425,4.74972346
-0.09362781621530566,0.4847378494061073,1.0407999644749986,4.75457057
-0.08145844271285246,0.5305112107995592,1.0414168138991413,4.759680171
-0.07559709596900824,0.5436491895717058,1.042108731392061,4.764768431
-0.004582782061750182,0.6635009886214152,1.0418569161336548,4.76950071
-0.09103303580319393,0.47078678553958714,1.042128869237408,4.774389745
-0.03893394675479298,0.5217690401117233,1.0419204908302626,4.779111217
0.026037043629190227,0.6024960990342325,1.0416836497766429,4.78447123
-0.1594688412715903,0.45049061891841674,1.0415289965129286,4.789176084
-0.05219974964036893,0.5285222391340184,1.0413542267433906,4.793973395
0.012643553082351615,0.60010149805019,1.0414014484271166,4.799131874
-0.1450552387016128,0.4872387711486859,1.0411889948179758,4.804306167
-0.036781905250389726,0.5509024934676126,1.0416479921195851,4.809433896
0.06153746287113477,0.6130729021672726,1.041165831712631,4.814311574
-0.17574014504396804,0.47245141134796703,1.041303143517928,4.819228242
-0.0581830507366287,0.5332015394309342,1.041443241265345,4.824097143
0.0018532678422979593,0.5966225527077469,1.0412984834146277,4.828997836
-0.03505370519860339,0.48309497402386115,1.0408560266654756,4.834007223
1.8963951866298119,0.5802352129765291,1.0406123432088308,4.839683441
-0.11051400070795712,0.5602090371712568,1.0408704108618212,4.844771181
0.14065887809197472,0.6024921938147026,1.0391462886576512,4.851836121
-0.08695402912335289,0.5412382932169848,1.0365746268371634,4.855435379
-0.09087678759574212,0.5439266792446242,1.0337377238174248,4.860096667
0.01394004838164349,0.5530352211628016,1.030898709772661,4.865758117
-0.04805628704971168,0.5533800292197346,1.028338131452905,4.870541914
-0.044869941087966804,0.5771293225470697,1.0264599690644443,4.875734868
0.02013110600998669,0.6228991712159334,1.0234695832268303,4.880219467
-0.2399564122044317,0.5195666259507646,1.0206962846889647,4.885016715
0.09071884120748142,0.5668804369000991,1.019015992030363,4.89010922
-0.0026965081289517415,0.5362358442369428,1.017361192667556,4.894956743
-0.002548975143952529,0.5609598298358962,1.015706147558741,4.899714094
0.05118131011275511,0.6255853813845992,1.013789835131439,4.906330819
-0.2928551161906553,0.5078998108546978,1.0126998690211786,4.910008994
0.12999011529397858,0.5360416347985403,1.01186527150448,4.915071251
-0.002078010302459175,0.5490299335161243,1.0106048824806004,4.919642601
-0.03148009719813284,0.5561314600165336,1.0097170710893406,4.924880516
-0.051139254414260274,0.5404545494560873,1.0087354547735992,4.929555748
-0.1554022367888316,0.5030241001469007,1.0076434544662958,4.934312627
1.9870492833698938,0.5677161742028155,1.0072275205125045,4.939210959
-0.003981694754127357,0.5539058118552388,1.006721390176778,4.943949121
-0.05291325716993167,0.5268886713199571,1.0056559350223782,4.948930161
-0.16303949456454883,0.5605831785380162,1.0047261104293141,4.953853689
-0.002163552091396818,0.5881335759009904,1.0042475405177356,4.958983552
-0.025101072918840797,0.5739261568547843,1.0037398009082144,4.963797369
-0.03800609136789093,0.5513960246170019,1.0030682486195626,4.968606046
-0.15958071067135846,0.525212030891461,1.0025616414394989,4.973495014
-0.005429302902380528,0.5850969236599818,1.0021551274239504,4.97850185
0.052266259731770785,0.6018520428099486,1.0014286194677937,4.983560758
-0.0033391683164082815,0.4792251934953375,1.0007280469550988,4.988468366
-0.13834482227177497,0.5993563699797377,1.0003141193343363,4.993586099
-0.06529015019553579,0.5526038945261391,0.9997154784276892,4.998587541
0.05256892787119411,0.6266264734638499,0.9986385876565145,5.003776159
1.828721747922697,0.4901632149789079,0.9983744797468467,5.008308481
-0.04547493637316227,0.5966655439522777,0.9982965989142926,5.013197579
-0.013975501728179213,0.5662583022483719,0.9984700982829778,5.018003865
-0.08345119282853922,0.5354461583659849,0.9976694209944391,5.022908517
0.02858152491836711,0.5637141633864838,0.9969478701948751,5.027913563
-0.10094803792478423,0.6045217837146841,0.9968271979354372,5.032944216
0.051522274135712656,0.6246521092079164,0.995847580975624,5.039618743
-0.1352936589799669,0.48631007928481784,0.9955459111434257,5.042957662
-0.07475968921685938,0.5659459461326737,0.9949976638886934,5.048550981
-0.02179685216727686,0.5775247490374257,0.9953186744909976,5.053011963
0.0985750922396598,0.49991805658614885,0.9943952191653948,5.058026672
-0.1511438656369138,0.5999370477649507,0.9942692207077756,5.063037147
-0.07566330806967572,0.5748603802728783,0.9938739310057966,5.068200986
0.06496239276166199,0.6018494822170812,0.9932331701434617,5.073607493
-0.0027684149047100363,0.45965398079122793,0.9931103469644478,5.077891232
-0.15633398981172666,0.5860217661306102,0.9927682242912805,5.082877454
-0.05084115054909627,0.566132414559925,0.992382962015838,5.087903581
0.05671335337187152,0.6109047209486692,0.9924114071924168,5.092579326
-0.07841767226236604,0.45987552130136117,0.9920138059769802,5.097599567
-0.09146546138034531,0.5550776750470026,0.992009424222055,5.102569471
-1.9754518420793994,0.6027487458452414,0.991919323507246,5.107530615
0.14734137335048772,0.5165233307479575,0.9914974031579233,5.113022326
-0.1951732666734417,0.5699218916325139,0.9914814469149098,5.117946809
-0.08597461093386767,0.5552912439480586,0.9914906318980604,5.122817012
-0.08131652109417696,0.5325217091259425,0.9919276246943819,5.127654648
0.0643354873385356,0.5762951435123324,0.9923537976046342,5.132720049
-0.07076044283030052,0.47315450571171785,0.9916623872467534,5.137642774
3.9560561372315632,0.6017893567492348,0.9922190824258633,5.142510138
-0.12936518552445567,0.5621703756237114,0.9927239939578831,5.147654958
-0.0916324796977043,0.549145272401964,0.9926167407647909,5.152612011
0.004613622449435851,0.5380532797964401,0.9927805897994616,5.157568802
-0.10889607008392839,0.6184730034906494,0.992895932408643,5.162574239
-0.07221631547380415,0.5973795451846542,0.9926304969427379,5.167532142
-0.0637229281172235,0.5634701695201476,0.9928089668412466,5.172519261
0.06318704022609119,0.5005512241789762,0.992431810471563,5.177607095
-0.11771487801880762,0.6205284379835587,0.9921640214678553,5.182625771
-0.06223294903691059,0.6026990777595637,0.9926795659901323,5.187540537
0.054528940264368136,0.613962368972943,0.9921657154595097,5.192586385
-0.016419243091630696,0.45279128723661133,0.9924622730949162,5.197556178
-0.12609140977156214,0.6736981625713135,0.992476107736686,5.202668888
-0.09954348234039112,0.6040001785120618,0.9916637088943138,5.20736363
2.0549896530048786,0.5955352497382066,0.9922803404555097,5.21242822
-0.088878510505173,0.585352663590533,0.9920631385245402,5.217661941
0.022499258799165554,0.5917169473741466,0.992172054346186,5.222699605
-0.06353891826390504,0.5760909456159488,0.9919185660488892,5.227525511
-0.0594289633562419,0.6109364746235564,0.9922997130441918,5.232487207
-0.06210245234236498,0.5857878657377633,0.9922786768542793,5.237524755
-0.05715104483179846,0.608881033942889,0.9916007411213815,5.243043228
0.021529314402111397,0.5803418250772454,0.9919143187548726,5.248305607
-0.11061584399342993,0.5843685182973637,0.9914059263864906,5.252441128
-0.04751433394267659,0.5711183587071422,0.9912230907402223,5.257957142
0.046133415316333234,0.5903137462775297,0.9912893454028573,5.262523487
0.0032018319550197114,0.5378294574858549,0.9906959610635293,5.267416868
-0.14420119337791523,0.6252797229326411,0.9904811285893202,5.272555723
-0.05574501607512068,0.5822740417521146,0.9899996304628538,5.277634156
-0.050685249199305844,0.5741593546907237,0.9904734970185575,5.282445197
0.048852171518730364,0.6246451053054436,0.9902738886355209,5.287309094
0.04257981642336006,0.56498847260979,0.9895559503388315,5.292165131
-0.25250742706718116,0.5907246048924665,0.9892991417745806,5.297017939
-0.08436667416472171,0.5640528005902112,0.9889192421484498,5.301930986
-0.05207011736433635,0.5945308610492015,0.988814092540015,5.306918222
2.099685945733527,0.6269932307068657,0.9894370666687029,5.312182318
-0.0589251746272496,0.6099999432233113,0.9891539269500133,5.316983761
-0.13419784417646086,0.5089313948529427,0.9887959777831644,5.32192216
-0.14401850176262881,0.6214302983559035,0.9888248684348281,5.327114562
-0.03216028932890508,0.5883770455669182,0.9892491851344243,5.33208059
-0.050848001793717304,0.6060135467709331,0.9894007350951307,5.337110791
-0.06564846790164267,0.6297358781830673,0.9894241141578938,5.342152637
-0.051447545217740906,0.6157955394992266,0.9895440350341108,5.347563593
0.011680099807072047,0.4894273158176278,0.989515224359097,5.35210446
-0.08717939225635149,0.6080182499092588,0.9895655276242644,5.357131068
-0.02792208397710965,0.5972881585746357,0.989400695328144,5.362098285
-0.04990901673843121,0.5811836504922891,0.9894389026580964,5.366971198
-0.04395695225973695,0.5939892533579164,0.9895880877405848,5.371995923
-0.03422303882591014,0.6190398444959545,0.9894895348826307,5.376973135
-0.011873955827292568,0.6516957670612149,0.988986891827154,5.38191872
0.05855646144262104,0.43700697001717365,0.989077369547326,5.387000809
-0.20348896041894216,0.6631203514827474,0.9888763360730195,5.392076581
-0.07817407190209859,0.6119012149869487,0.9883701757066138,5.396915655
-0.0437144536358773,0.5919261990570752,0.9883333922131377,5.402006284
-0.07452866822199984,0.5873715914669191,0.9885154630587073,5.407026905
1.6818545219510097,0.6205246574699129,0.9882801136050435,5.413175712
0.565350767029401,0.45393748241586257,0.988253033009277,5.417074936
-0.27509037289456795,0.6556045453062064,0.987765525291106,5.422314577
-0.11855612130710232,0.6152298662459007,0.9876965625566124,5.427220725
-0.05920829950878528,0.6191782605417937,0.9878135136579144,5.436429717
-0.08322513132899757,0.5979220821061905,0.9875625754612234,5.437990593
0.05871616288303312,0.6011218705792026,0.9871017384040557,5.44215382
-0.0256088115789103,0.6533290282656412,0.9875655842482804,5.447446478
-0.09581505840862195,0.49348593876453734,0.9871137416569944,5.451957084
-0.07549270899273719,0.5800003686913529,0.9868569104343061,5.456953659
-0.033637140546246905,0.5738486969310185,0.9874199248704615,5.462052109
-0.046067179235221876,0.6321698417465655,0.9874150037341811,5.466911907
0.0074639809779165275,0.6231556834889206,0.9874677243491882,5.471978831
-0.27912761122800867,0.501231475762974,0.9883248071935241,5.476981318
-0.27679252079419364,0.6360933412657434,0.9928373296412395,5.482186202
0.12367281702410009,0.5962016513575914,0.999375525709259,5.4871541
0.1217591856312572,0.5993899227960796,1.0054816521677186,5.492029218
-0.444870075068121,0.625998149182758,1.0126241817367054,5.497053288
0.22722598562118526,0.6400466719672728,1.0204907532561318,5.502166764
0.05293363384832554,0.5992638514618727,1.0260538942825055,5.506828069
-0.3178295217116301,0.6221591088559691,1.0313024665810808,5.512169306
2.1632269126271275,0.55492427100878,1.0362238272059645,5.517080097
-0.12412114694354942,0.6643516958645702,1.0391903727934593,5.522153695
-0.10532384423190023,0.6087033133866929,1.0418028506054717,5.527113817
0.03792190073572974,0.5876263668852778,1.0437660582386197,5.532088078
-0.14394091329296183,0.649655210570247,1.0434986588905315,5.537083953
-0.0006750909115103808,0.5912550485369557,1.0441759770931323,5.5420663
-0.0764708329650816,0.6277246156763506,1.042522443357242,5.546826119
0.007370768727180843,0.6803178070393792,1.0406271487794578,5.551933122
-0.04000239574901125,0.6134597653028027,1.0393911510325466,5.556966255
-0.15116981818785027,0.625823134616542,1.036654522892219,5.561943889
0.01796346598403986,0.6316112990817193,1.0339119322733747,5.567031525
-0.03310694093062088,0.5726117815391135,1.0320012758856327,5.572225441
-0.14276367890953293,0.6009102152040913,1.0292446341900559,5.577529196
-0.005598044017727996,0.6429248918021926,1.0273050377232946,5.583254755
-0.05478990781720755,0.6379935454826087,1.0264454208046294,5.587531181
-0.1322721062164736,0.6282035387104276,1.0245717702400596,5.592735689
0.017930352736144232,0.6070465039011381,1.0247630911861794,5.598145771
0.010408059350696941,0.7058975372880105,1.0242772366770319,5.603199771
-0.1600938537061583,0.5660947916625617,1.0238091762166017,5.608221791
0.033872510162047946,0.6062319635437496,1.0248537161534037,5.613430245
2.015016460877818,0.6672095181473726,1.0243788912943441,5.618331694
-0.11483948961981563,0.549732114928851,1.0259783429125513,5.623243093
0.024949292190237872,0.6740238558430433,1.0271746450987715,5.628176869
-0.13388423217263798,0.6230479959995194,1.0277304041282351,5.633292101
-0.10213461376379004,0.5594198892685652,1.0293992244176469,5.63822115
-0.009986570175684826,0.6654362644500864,1.0313035407531175,5.643062055
-0.1278365509350404,0.5967234196193938,1.0318260059100635,5.649729238
-0.07032612898509005,0.589911125187211,1.0329845969644431,5.653612678
0.032740494425966216,0.6949986133588418,1.0335846684661656,5.658867532
-0.17246182339298852,0.5974000605261692,1.033389374498165,5.663834245
-0.00943918029829977,0.6373779993603136,1.0342365566028011,5.668930211
-0.023209197580375786,0.6474777442987486,1.0337404696115537,5.674030358
-0.1064752485737881,0.6181988916177046,1.0333335088684634,5.679066772
-0.002239512795646236,0.6316895763877888,1.0343677431208629,5.684066058
-0.03858800417101211,0.6490412698274588,1.033604542661963,5.689177663
-0.10733316973504638,0.6070489702047842,1.0336170138111027,5.694107292
-0.0084465707435543,0.6296564783059818,1.0339597118908928,5.699024789
-0.042586429773755916,0.680281913369013,1.0335738264104737,5.704110003
-0.13933973745674044,0.6075582553719645,1.0330052745317748,5.708923116
-0.001440172251382351,0.6170854323127986,1.03322759633692,5.714266533
-0.13455653447820637,0.76209170272485,1.0335077693554702,5.719311595
1.9972802303606956,0.577935770163559,1.0340822742195697,5.724290533
0.050616668217209754,0.6224287590182642,1.0354418499896,5.72950366
-0.12741422264111266,0.67147127293499,1.0355154600742908,5.734413094
-0.06614977198953256,0.5988837344653433,1.0365903390036195,5.739451301
-0.06362442412725003,0.6941707093099982,1.0379428633149588,5.744696962
-0.16283159951910095,0.6142653515954413,1.038415901377905,5.74951217
0.003408927432282839,0.6104852681839932,1.0399784778909678,5.755438573
-0.1257131977601748,0.7391015197489991,1.0407550913756887,5.759552914
-0.07024701398848171,0.60196343318529,1.0405710050326822,5.764521352
0.01329780799660779,0.6225163845257586,1.0417554268800242,5.769522426
-0.10271077554294089,0.6635469382070855,1.0417146564775648,5.774908687
-0.06933126061489726,0.6254236169798972,1.0411133460800357,5.779743025
0.02119399757359771,0.6606905893067992,1.040951829543835,5.784516471
-0.07679196945678424,0.6645235162234643,1.0397070197259948,5.790282441
-0.05138991780705161,0.6337004124004237,1.0395808206490118,5.794311579
0.03606598391632706,0.6238737080463768,1.039336526000896,5.799270073
-0.0998068811418463,0.7210848466043849,1.0388768628064429,5.804520522
-0.08055715957228246,0.5986352789822963,1.037578382440896,5.809912057
-0.09665021504232235,0.648170612075444,1.0378259030591965,5.815202288
0.027151213752539743,0.6220101816439902,1.037479126379278,5.820126771
1.9126298713459977,0.7122818814979868,1.0376387276011727,5.824946361
-0.08587421598195917,0.5973310670421693,1.0381305131806684,5.82988533
-0.09611365209286808,0.6660246564494564,1.0396577251452768,5.835227559
0.0808354593050116,0.7217999217542604,1.0412664885179843,5.84025765
-0.1915402945837279,0.6234860321449756,1.0418285015927051,5.844944292
-0.06510306028894523,0.6408301984254717,1.0422998139280164,5.850960602
-0.067843906278247,0.6399104554652881,1.0436904170773,5.856117416
-0.05803488600331703,0.6834666388379661,1.044740724732553,5.860523433
-0.0772159512948751,0.6496248342511854,1.0455165650102893,5.865215278
-0.05507860776690174,0.7106482233240063,1.0459378403610144,5.870921338
-0.012085696825985034,0.6211677666966487,1.0456088086068278,5.875382782
-0.014038525872068046,0.6383267401796676,1.0454192037090777,5.879939938
-0.03802352816117427,0.6651782508411043,1.045410383296118,5.885620205
0.14640179026862704,0.780306111597976,1.0445992508208355,5.890409896
-0.15736347612785678,0.6391424645762493,1.043613103717116,5.895527158
-0.08972546780944403,0.6395891896352465,1.0426707122595216,5.901752027
-0.08391471985159402,0.6428343241232602,1.0417598400256731,5.906153066
0.11542870535073267,0.7481134911059619,1.0410300881037002,5.91097439
-0.00812956974228024,0.6873718297764635,1.0392206816626837,5.916016993
-0.018119982980407887,0.7092708030986332,1.0365949570948167,5.920940848
1.6454607131682588,0.7021882880167479,1.0341689967277177,5.926486154
0.21720558470571036,0.6741863401808413,1.0306488481612224,5.931081208
-0.08159818682969978,0.6980979948034333,1.0285244753350988,5.935808943
-0.09659517170455394,0.6422410683587526,1.0254123642651025,5.940827201
-0.033516996252238335,0.570191729324725,1.0226678034925376,5.94596537
-0.0748248385917331,0.6628999998332187,1.0195129841174848,5.951446928
-0.06703392964294139,0.6794345090483698,1.016858860315013,5.955949833
-0.0535774009496475,0.6536383655311285,1.0135973024184728,5.961291128
-0.03173328239797145,0.6521055512742738,1.0118490748519577,5.965652896
-0.03722377300656415,0.6681542254363367,1.009137965904484,5.970702425
-0.06247566289998152,0.6470487961152275,1.007066838085159,5.975482182
-0.057104552368257996,0.687831755739768,1.0049144017788223,5.980397866
-0.052599077018430876,0.6573739933782153,1.003181649465722,5.985047077
-0.0293954376940468,0.6387947244089164,1.0014024773822254,5.989962157
-0.038027463913906094,0.6594313534046261,1.0007714024437435,5.995035153
-0.06575916845619272,0.6467836016563369,0.9987149941770408,5.999882412
-0.0578158161142021,0.6701376957405987,0.9974774685116788,6.004759831
-0.02843536042626938,0.6076246811916582,0.9960675493453561,6.009636226
-0.044570038324613884,0.6780501578729824,0.995080180685954,6.014631257
-0.03550252208810428,0.6369370966272012,0.993565004701615,6.019643171
-0.055887684923730266,0.6273886655035004,0.9930236495437424,6.024556832
0.052794359786242834,0.5947077768242311,0.9920911133408141,6.029512252
-0.048777651092726616,0.6594507666430478,0.9919813702667202,6.03461292
-0.030070641278935297,0.6973179410709706,0.9917712961966627,6.03956491
-0.05303024489565461,0.6758519295047927,0.9915937647574649,6.044514977
-0.030552550141687052,0.6134519132285209,0.9921685763314041,6.050434415
-0.024283610494899282,0.6237832500016824,0.9920240497171826,6.054636886
-0.013914588813673214,0.6228474344007083,0.9927536914081936,6.062952433
1.9226584109980294,0.6482086863710506,0.9933758811989626,6.06514926
-0.052390586596985006,0.7058259731189279,0.9940790358463605,6.069769889
-0.04356257256376833,0.6785619955169151,0.9942719697986256,6.074846244
-0.028004160612870272,0.6772039911016191,0.9950626473951395,6.080095875
-0.03518689037115409,0.6842240076462633,0.995536278799966,6.084658888
-0.12331107967303018,0.6741306503879309,0.9966346739362018,6.089566673
-0.12598775275404844,0.6628236268659649,0.9982992988052821,6.095784173
-0.19833951649607673,0.6369135152094152,1.0007095846891954,6.099289253
0.005370603169359566,0.6713704698583886,1.0031647628270977,6.105146153
-0.17285272055490877,0.6150707762735645,1.0060078767172869,6.109819746
-0.24277199802464478,0.5871101605980783,1.009455710820024,6.114692119
-0.17321874285135536,0.6435211042213949,1.0135411614058036,6.11983743
-0.13074924740121247,0.6733726787973384,1.018243287148903,6.125317813
1.8414192721002003,0.6250313495730329,1.0237138337381442,6.130639542
0.12541648290605295,0.7262379389883836,1.028842544081144,6.135470717
-0.2570578529338832,0.6664226776382814,1.0349747304156918,6.140381778
-0.11974232320356708,0.7584353237012975,1.040226441175333,6.14563881
-0.11220271546445246,0.7182006682143246,1.0461880366393095,6.150686183
-0.05541597302985455,0.7357092317621842,1.0512514170073217,6.15562109
0.007934790222825325,0.7016556124368739,1.0558311842409807,6.160670117
0.07901701701093553,0.6498840049062109,1.0588325377221586,6.165803581
-0.004835396005493993,0.7792159451370149,1.0607084711158195,6.170678253
-0.041667957175072,0.7145065374806491,1.060515977279685,6.175701954
0.014550290740054442,0.6707440934833359,1.0601934225393728,6.180598931
-0.06242803642052711,0.6213850342819449,1.0578924157085134,6.185511958
0.011442917469744771,0.695378414998731,1.0558607862227174,6.190741043
0.03615580121219307,0.6777312018464836,1.0529864603631034,6.19665217
-0.09342085170887639,0.6809683073214676,1.0496820256249029,6.202018037
-0.007118431742926038,0.6936677961451463,1.04752908687425,6.206638898
0.0413257837087575,0.6845411485486227,1.0445799526076422,6.211566128
-0.22159974737887728,0.6374461995539378,1.0419512599084775,6.216437552
-0.002695654429289751,0.659577144991752,1.0400603352132365,6.221257454
0.05216151864098581,0.7829133074438493,1.0385407208894082,6.22595477
-0.22295368219963574,0.5425512610823705,1.037453421268922,6.231426079
2.057782589326399,0.7082221430222697,1.0373708390795306,6.236864768
-0.00788026225649921,0.8642809981686499,1.0372655750688509,6.241587868
-0.24477191848770347,0.5594396836141405,1.0379066561975145,6.246315327
0.021648799844101885,0.7552826706692766,1.0393473931015853,6.25262803
-0.10376990763961902,0.7380007372431076,1.0400860334607531,6.25648013
-0.04669179696909358,0.6138574353428553,1.040671142946219,6.261436862
-0.0031858056125410846,0.7560391697539948,1.041300934172991,6.267589059
-0.20842928834362762,0.6130260530300266,1.041480160375735,6.271583668
0.0056959451613741025,0.6849545356357475,1.0424436363008687,6.276914768
0.06540561193239221,0.7774859646551425,1.043215368178488,6.281748235
-0.25295139376184606,0.6456793117200911,1.0435956240564348,6.28674245
0.04721750783079336,0.6835728552075896,1.0433877387061485,6.291674721
0.04167035370816735,0.7925150946641629,1.04401687073713,6.296657618
-0.20011390145545502,0.66699733842634,1.0430372496092595,6.302109119
-0.049466862013623485,0.6903311403866917,1.0441592342167991,6.306643536
0.05018294226554036,0.7532615131809337,1.0442176647669474,6.312132633
-0.21634884929326734,0.6559466381788609,1.0444200211105765,6.317492807
-0.007322175732524756,0.6847160598063483,1.0449051609179294,6.322946968
0.07614469147412965,0.7550591723093414,1.0451905002565167,6.327977372
-0.2993343427847981,0.6586023824829741,1.0453409952669719,6.332972979
0.06874407965019803,0.66901621712696,1.0452180047050745,6.337771073
0.05202911706704176,0.742054857187223,1.045442631786875,6.34323634
-0.24594733245970365,0.7082331571809879,1.046314071999254,6.347919182
0.032719908926991906,0.6721781902998374,1.0470581354950828,6.353136666
0.02109073094631577,0.7640211552839143,1.0472170890296486,6.357880837
-0.2588462621932171,0.7166404042791199,1.047627941142284,6.362919749
0.032785572448994334,0.7007075181885056,1.0482487429863563,6.368195308
2.130912252684853,0.7954956846408725,1.0486203634272018,6.373689094
-0.22900623721476504,0.7406549386104031,1.048385592812088,6.377786079
0.05798648136841103,0.7274178215747076,1.0481515654448519,6.383156781
-0.032158314108439626,0.7575478117209974,1.0478186685258974,6.388665991
-0.14319397780747492,0.6744433189609091,1.0473506006157534,6.393916585
0.03650474237394803,0.7717035762703619,1.047261189296761,6.399625051
-0.16031709763871274,0.6983754880064883,1.0465186342295465,6.405529519
2.164221384734899,0.7338285171081934,1.04605253121005,6.40899195
-0.13253112476663037,0.7428572459314627,1.0447775056595843,6.413819134
-0.17185617715098392,0.6642165646980758,1.0446298553552067,6.419150587
0.1778499184541782,0.7873357423319167,1.0437699999932784,6.423851022
-0.11184224636832885,0.7150228097009752,1.0416460347659713,6.428964602
-0.07211604745652578,0.7134266415703929,1.0391777144427683,6.433950476
0.09119703892829614,0.8046427811387126,1.036598060659097,6.43947284
-0.14174823320608312,0.6933450108121518,1.0334037050677254,6.443684416
-0.053856091875431535,0.7061299134183399,1.0308062889445129,6.448511773
-0.018272305421680658,0.7495276669679145,1.028490450715851,6.45439664
-0.002001626787064382,0.7044175150317834,1.0246968996391748,6.458921029
-0.10238795176705139,0.7159519147002394,1.0229727621936406,6.463058114
-0.004805253179514451,0.7303809743202201,1.0211145543532723,6.468139055
0.0514911575899025,0.775025007689633,1.0184526640501368,6.473412538
-0.20013390400987752,0.653537895531635,1.0163117520069451,6.478330116
0.009736892904302212,0.7276355258911588,1.0146520795234557,6.483553285
0.08302435822402238,0.7907331161522618,1.0125395141402769,6.488509628
-0.13084033050732397,0.6663867933208497,1.010912887230953,6.493969293
-0.04603831098499674,0.7233376845672823,1.0100886384170453,6.497875769
0.02355440410515974,0.7772033438377117,1.008018790636388,6.502742064
1.8239383558094087,0.645473337787021,1.0074848094257804,6.507768837
-0.024425253269085078,0.7448920018540706,1.006411078971118,6.51277878
0.018647168431058906,0.8118278121769413,1.005673088148561,6.517849836
-0.1299444808662253,0.665918266396292,1.0043010897941578,6.522721977
-0.059045627422740395,0.708070026784617,1.0033787852225866,6.527813848
0.05805274040086409,0.8203858874627294,1.0024540239571975,6.53232029
-0.11774641789792764,0.6665768698694444,1.0012644733104057,6.537605861
-0.03794583733561461,0.7356286287152836,1.0010239914805277,6.542278635
0.036650523453289445,0.8184632102008539,1.000528449108726,6.547018366
-0.11678038242837449,0.6522652284936507,0.9995072063794759,6.551976227
-0.04196988187512408,0.7091924806133026,0.9990410181574872,6.556900535
-0.03659858843436929,0.7466338880405732,0.9988462421314209,6.561874095
0.03520319539750002,0.7958235524615346,0.9983273988470411,6.566756852
-0.15270679387874891,0.6508966914278715,0.997526797137893,6.571501971
-0.00929141922905153,0.7068999948090124,0.9979213551419837,6.576712005
0.05648459837679444,0.7881228288772556,0.9978162245020611,6.581532453
-0.1574014489762224,0.6132335829553396,0.9971484454971209,6.586535161
-0.039779412701950144,0.7424159076746494,0.9968611865749999,6.591439753
-0.05715061204101048,0.7487820917961379,0.9970020240102678,6.596609406
0.05241500707614398,0.7611460451838291,0.9964087315035643,6.601484002
-0.142082066919785,0.6395600008676812,0.9960597593234318,6.607152332
-9.64724928216032e-05,0.7412105178399632,0.9959147610523442,6.612617041
0.04341596805736564,0.7604855131786254,0.9959045827860873,6.617613698
-0.15339086749854164,0.6659861478023701,0.995719017710775,6.622967157
-0.03220012376195877,0.7488247189340692,0.9956229100226063,6.628068915
0.05279676544757651,0.75821611258968,0.9953814869458008,6.633001616
-0.1276108327097729,0.7234161293157062,0.9948200710947888,6.638079568
1.9316128693230092,0.6957579964621382,0.9944200753396978,6.643236282
0.00344448455977236,0.7341119775545758,0.9946842210923678,6.648127223
0.0357032181666958,0.7941629728565042,0.9942066274526073,6.654290061
-0.17435432656532177,0.6443448539231057,0.9939323175790478,6.65780447
-0.014322721427171975,0.7216183512118707,0.9940821199813243,6.662749655
-0.02496287191268714,0.7315341535346467,0.9942329789371289,6.667700629
-0.033095005179371716,0.7568863471177183,0.9939094196278606,6.67264336
-0.05328431172896043,0.7187703258613267,0.9938223133383195,6.678005243
-0.02456935380414309,0.7797814616623575,0.9934331103086732,6.683030935
-0.03188250397240574,0.7450092050644137,0.9936612865584081,6.687731127
-0.04351784667512783,0.7393184600811766,0.9931347771442808,6.693542887
-0.05081514009936145,0.7064844248160786,0.9934451984025459,6.698395374
-0.026107567204382807,0.6965304573210518,0.9934526885358632,6.704066675
0.06403047224517097,0.7902031802197103,0.9931237331621118,6.709015878
-0.12581148452361543,0.7040519219259982,0.993258470376642,6.713788351
0.0024077597030998724,0.7278446796301046,0.9933727947568639,6.71916779
-0.03420222316968951,0.7499774770308018,0.9935966375980848,6.724198653
0.06861612269617089,0.73443463799056,0.9933158115525198,6.729817441
-0.17943758282288558,0.6635007362615931,0.9935487055810407,6.733965798
-0.025284493264010506,0.721364950659204,0.9935761859137943,6.739305424
-0.03589794585720273,0.7251209547652222,0.9937696577673152,6.7438943
2.015919434846199,0.7146624595317032,0.9936765370167902,6.748868041
0.020406100396257523,0.7545736603725067,0.9940565917075295,6.753782355
-0.15347169932707813,0.6960447511251329,0.9940303912044736,6.758835666
-0.04795061523369046,0.749219204862984,0.9936448253767961,6.76384133
-0.018412462151600917,0.7520991426637178,0.9937344432460861,6.76852075
-0.028021042651388706,0.7286159672937742,0.993478631983612,6.773405138
-0.016919679194774048,0.7345362975018672,0.9936559284109051,6.779050705
-0.016645380211801647,0.6916088227250526,0.9935402030334349,6.783192696
-0.03186263469930272,0.7606407814213105,0.9934746915439185,6.788322587
-0.035185469170813354,0.7371899465925412,0.9932191449448334,6.792850047
-0.01461076488612099,0.7166624288030728,0.9930597835459487,6.79763778
-0.01150883525949202,0.761470702640331,0.9928516073853355,6.809242791
-0.015751845988949274,0.7401199096505535,0.9929007865059924,6.811357626
0.16445529460928437,0.7483427739892101,0.9930584023360094,6.815650122
-0.00012405424017921524,0.7351216456268155,0.9931139728133255,6.817542293
-0.02805041297257602,0.7330643402821941,0.9926955844073584,6.822470331
0.00863517881622572,0.7332039320999483,0.9928372482071056,6.827305814
-0.027932993616129397,0.712783736100623,0.9931238344602131,6.832302769
-0.021765182700191146,0.7482805529026056,0.993263043922392,6.837166834
-0.014489158991018176,0.7513519397136776,0.9926340294123459,6.842042313
1.9967537593006657,0.7388161576871394,0.9932341811329775,6.84696447
-0.06138645175322615,0.7547658592305597,0.993080729045656,6.852228205
-0.03268723688583032,0.7577767898975768,0.9935178691485388,6.856761935
-0.05387178184331602,0.7661231865853825,0.993278382932865,6.861761947
-0.05131607693362946,0.7725232879389694,0.9929591664085883,6.866629476
-0.021894684367719706,0.7618720331423605,0.9927399340412733,6.871568429
-0.03989566479082793,0.7492888556749386,0.9926599728632896,6.876824042
-0.03657865065493957,0.7398322728804608,0.9925718227092541,6.881457741
-0.015359273897153074,0.7674758255806392,0.9922493280302631,6.88641794
-0.016116644296655165,0.7536243886687555,0.9927037656078939,6.891450011
-0.027316344106018575,0.7660506581278301,0.9922026257449132,6.896365563
-0.03536755081161949,0.7709639433469688,0.992264127788288,6.90122146
-0.06074527053269739,0.75884417387377,0.9920290849420634,6.906690335
-0.03594811845482185,0.7777823717932703,0.9918355038076139,6.913558966
1.8519503131364898,0.7573454367802465,0.9919009408197554,6.916150294
-0.09474746999850896,0.7925666467993779,0.9916742578408524,6.921176238
-0.0179920725508352,0.7874793892780421,0.9921108611289828,6.926288724
-0.05529008945427004,0.7669601222895671,0.9918873391526257,6.93110262
-0.02990563762280375,0.7385544806311656,0.9915653091443798,6.935981409
-0.0007210030421581533,0.7489013284704308,0.9917565455756949,6.940904917
-0.002578125285164115,0.7596074396930447,0.9918153783140378,6.946546326
-0.05398642268811009,0.7630129790682191,0.9918366255587319,6.950884317
-0.034263036143777494,0.7371913832397852,0.9917353367171187,6.956003783
-0.02198705239838412,0.7495121419640166,0.9915391170067546,6.960916748
-0.02880022223170534,0.7706432212949672,0.991487364853909,6.965845872
-0.01707566169246539,0.7914325849465288,0.9916850955212783,6.970933476
-0.013253235105159359,0.7787465573019208,0.9916965870338399,6.975907933
-0.04549605017761699,0.781247996409906,0.9911846658463626,6.981118458
-0.012175920677957447,0.7923906791418229,0.9912514933824841,6.985849261
0.0022411437011017575,0.7542680443228389,0.9915967794868631,6.990994888
0.02945387718006111,0.6743480554399981,0.9908424402332551,6.995987338
-0.05985521020706536,0.8811420797582418,0.9911837192530102,7.000847629
-0.025002948828306268,0.7396537208319633,0.9900439758560154,7.006204356
-0.0427021652447124,0.7427365579563914,0.9906346570841964,7.011069594
-1.9023243933771556,0.7856210409349822,0.9902890314841865,7.015991907
0.03261181671900747,0.7484534871554208,0.9899840182352668,7.020991591
0.07446144447137686,0.7525729461752583,0.9902699489659988,7.025917754
-0.04354179441390989,0.7634642554602045,0.9890524833508665,7.030941917
-0.06565540433835666,0.7058779841819655,0.9893377120252457,7.036088609
-0.032065057753741445,0.7724305643597544,0.988979150140131,7.041077943
-0.03677876463613224,0.7803074926344669,0.9886607315744594,7.046141945
3.9063115803222077,0.7774773309062732,0.988591458295831,7.052405417
-0.1134497316470124,0.7859357875447973,0.9891687728194609,7.056038881
-0.07318917738261903,0.7885039118956954,0.9893026091104856,7.061074811
0.06077115233584797,0.7473228284861405,0.9888821267941313,7.065986478
-0.03098956620004675,0.6382616642741801,0.9891200958298307,7.071158943
-0.10797123058267914,0.8447918443780497,0.9884686301708279,7.076053233
-0.059130032196416354,0.7927320729551353,0.9888859615429426,7.080919197
0.044515138321480435,0.7597030069833984,0.9885124131193306,7.085987764
-0.07247985033158061,0.6521559961697277,0.9889287989047204,7.09093428
0.0489201399148311,0.8464355608975714,0.9882537598239771,7.096021458
-0.11886877538519729,0.8145558559215853,0.9881081897956908,7.100915088
-0.052402996923100784,0.7765477301341285,0.9879849895542456,7.106072073
0.024726650862269578,0.7738192511331201,0.9877790298961306,7.111157918
1.690906585335753,0.7579890884648285,0.9878097365149593,7.116934015
0.23112047666678603,0.843023755499335,0.9880186711803424,7.120869189
-0.09731464613257107,0.7871472882171341,0.9883936571991134,7.125968022
0.07324555967418354,0.8272533440758731,0.9883840333131172,7.130996842
-0.11262614770971563,0.6285625167884602,0.9881011390162916,7.135954323
-0.07256434656688729,0.8831225791987508,0.9878381833195139,7.140975335
-0.0386837711620942,0.7810044433374375,0.9877407283049512,7.145963312
0.09904106911086988,0.7888167076011355,0.9876461014929078,7.150869701
-0.053969618514597216,0.7947890924544028,0.9869134020754804,7.155933876
-0.15138477876055215,0.7585087843458833,0.9865503036943201,7.160976019
0.058478068891795944,0.781986126439982,0.9863505351758881,7.165976201
0.0012760097488367546,0.6702491536128712,0.9857860786000258,7.171054032
-0.12168679179429501,0.9084272891278021,0.9850626611915975,7.176188094
-0.07793734944711331,0.8068821193776412,0.9849834996109689,7.181065556
0.10665506149593382,0.7672294251463306,0.9846526913509137,7.185971341
-0.06099411292929777,0.8409357847995117,0.9841904939029121,7.190933652
-0.11401846672095066,0.750841460570237,0.9841380390703429,7.196298069
0.13901964775932402,0.8208514022804869,0.9839166389340585,7.20089055
-0.09018068104861189,0.7610659025500675,0.9833762420870598,7.205935975
-0.1081773280294217,0.7665801740619694,0.9834715842040411,7.210958557
0.0729594382705595,0.7762427304597536,0.9830748490872973,7.215907224
1.9591619606468194,0.6993000283304255,0.9839708682694253,7.220930295
-0.055754511139884964,0.8867237043860005,0.9840341725278329,7.226085406
-0.043016203648482416,0.7669654932414947,0.9838850672430123,7.231064651
0.06503471268886866,0.7937829522629182,0.9843702650401792,7.236151212
-0.01039713072756875,0.7358006867049293,0.9844441803835451,7.240959745
-0.12431667966862928,0.865130998086937,0.984446705255145,7.246053707
0.04252105691567569,0.7984489163013876,0.9851034057609653,7.251893684
-0.09810099121896196,0.7050994815192148,0.9854585246840841,7.25611814
0.03911866080978752,0.8582558737035173,0.9852010872019105,7.2612579
-0.0837243513599226,0.8139933258884514,0.9852075799538185,7.266102299
0.05499793225604908,0.7829206118001348,0.9855125948438984,7.271074733
-0.17197494215296905,0.7649111176280644,0.9854941469305161,7.2762064
-0.01584957060519278,0.8438204979409479,0.9856321117059695,7.281154652
0.0810959638988424,0.7904655287154232,0.985923603264658,7.286523268
-0.14431920055392575,0.7063548726401446,0.98633394077676,7.291499102
0.021273208018982387,0.8908334419302063,0.9855533381184194,7.296084545
-0.06500033675750141,0.8354741116541629,0.9858392079778722,7.301115173
-0.012802384155500645,0.7396333074995574,0.985741166927475,7.306226249
-0.017162851589216075,0.8509096102225158,0.9855241282124998,7.311211053
-0.05385074915583252,0.858606440636213,0.9855929004840344,7.316141756
2.0489523923897033,0.8388348632428525,0.9860729585012038,7.321132334
0.025407028017644915,0.8157328021560906,0.9860461557123175,7.326170664
-0.11391951727064152,0.8251643267523837,0.9859071144756716,7.331084334
0.03747268689050569,0.7434752663658977,0.985951193294307,7.336200783
-0.1061727387654492,0.7556856604749653,0.9862901394735506,7.341297413
-0.008962522934580303,0.9146070674572674,0.9860372029411801,7.34615721
-0.06860799090340385,0.812713938618578,0.9862996706764803,7.350983913
0.013585635117784822,0.7899325012357675,0.9864089864783568,7.356654133
-0.11555248627450104,0.6736376754045643,0.9861376251454141,7.360995237
-0.053355309532407115,0.926127118571925,0.9860686531422511,7.366021097
0.06825435894802515,0.8127448001136927,0.9858659077096036,7.370991491
-0.07013497645404707,0.7068659195005993,0.9859205278676536,7.376156231
-0.0521590227075981,0.9441571922687231,0.9857951805186406,7.381032896
0.039808642183774355,0.8391288649020222,0.9856951844305285,7.385860849
-0.15244642170865472,0.8310273253078885,0.9856748280823411,7.391075815
0.08084490118084636,0.816751727079077,0.9856876939541772,7.396028686
-0.11137531418735938,0.7925355796641851,0.9856629704397267,7.400969652
0.052857726986231396,0.7808353270496269,0.9852371362480891,7.405960642
-0.028472769003340646,0.8647663080974654,0.9858840167346945,7.410979421
-0.09240273403380052,0.8475524367505759,0.9851803559317507,7.416299443
0.08051970620662696,0.7931722114609349,0.9854562860546001,7.420887099
1.8074944447953458,0.7245358499133224,0.9865684613453464,7.425994527
0.0330294754538928,0.9233771980607594,0.9861942881270126,7.430999449
-0.06816903809514002,0.8495380494809445,0.9867342961764544,7.436197516
0.18808955738087144,0.7811591614834609,0.9866791993798223,7.44130188
-0.11939139135325386,0.8866318434121584,0.9860848160960948,7.446372912
-0.16180042986567592,0.827954903867192,0.9856317314903248,7.452727836
-0.080077699385079,0.8332899115421248,0.985547390080024,7.457364772
0.07139704221717769,0.8334001368723257,0.9848843615405551,7.46171513
-0.03744275050033997,0.8203063739708449,0.9845233785914946,7.466547317
-0.11228596271628094,0.8060044765031756,0.9835381851499758,7.471662207
0.1326953209103722,0.8042390218449913,0.9836092260494138,7.476658663
-0.07316341379328067,0.8189715931743736,0.9824837597509635,7.481783198
-0.12665548261058868,0.8157217211520827,0.9822835267347608,7.486578145
0.08729391371301104,0.7461396401461367,0.9822262345106404,7.491500807
0.05573569416062147,0.8393892946401876,0.981542406037301,7.496489252
-0.12388102348430013,0.8472051792113304,0.981154564764876,7.501496835
-0.01804645096719135,0.8118365361759612,0.9813769157409603,7.50671498
0.150276331333499,0.7902207537631539,0.9811357377492127,7.511502165
-0.06051206897991679,0.829787527826686,0.9810590040816027,7.516764604
-0.13330968806861915,0.8074948325050778,0.9809921728869964,7.521839174
2.024192535823084,0.8455290852283225,0.9810298991791061,7.526720884
0.07415006471075505,0.8622894936019072,0.9809274653189564,7.532246311
-0.09469620221885612,0.8189834242235072,0.9812128828995484,7.537176985
-0.06683707448633387,0.8165133950886709,0.9812540339829773,7.541889501
-0.041158619585644,0.8418108721130979,0.9812304184609609,7.547268857
0.09731839045979654,0.8968602076624531,0.9813861614371548,7.552142352
-0.023129114112861133,0.7642033858938125,0.9814041244113455,7.557465874
-0.14331512620854175,0.8431015300096901,0.9813745793231355,7.562540882
-0.05127872825971259,0.8505436510822499,0.9812018914513283,7.567956241
0.06146436137005538,0.7880764825736409,0.9814331688876139,7.57255615
-0.1636727602262261,0.8604180887579612,0.9816049585295386,7.577491098
0.0709640772274772,0.77688367956805,0.9814266452739384,7.582575119
-0.06280538932943176,0.8826256169838603,0.9820555516269375,7.58751655
-0.05302793807170447,0.8247848022712037,0.9818111654719287,7.592919352
0.05965497801300054,0.7809612123127051,0.9814438993119409,7.598121481
-0.05429896234370295,0.9015287033061086,0.9819339726048981,7.60297801
-0.09357779735282619,0.8257194037173764,0.9817391787372639,7.608063244
-0.053954021075754977,0.8635896909678619,0.9820458746413195,7.61302017
-0.03580322905096671,0.8264772251094364,0.9819763879231054,7.618001197
0.04893323373797085,0.8065401344606012,0.9821922679801813,7.623015615
1.6458184342293518,0.8052638765920138,0.982412085807568,7.62951751
0.27543830129987723,0.8770255160336008,0.9819416360886978,7.633062235
-0.06987115485042944,0.8215564281430546,0.9824811739054774,7.638720555
0.0002669428947495653,0.8391067117433696,0.9824525121031042,7.643614434
-0.012941467523798995,0.8186090735960146,0.98314944143244,7.648452134
0.013120055732552212,0.8762827965337684,0.982926245591332,7.653735426
-0.08163345950601432,0.858290153819083,0.9824440965883134,7.658423772
-0.04149667263732347,0.8140386923620122,0.9821253531999002,7.662988641
-0.00814398443056073,0.802858178096929,0.981899161511623,7.667962105
-0.0537870971536471,0.8021725611867349,0.981825397392373,7.672943982
0.03974326160776073,0.8435364413499132,0.9815443857996274,7.677931282
-0.06987251605331038,0.8570726872028684,0.9809999122581085,7.682934058
-0.0005603159621890459,0.8396576286210292,0.9810057764048679,7.687829217
-0.03429351293498234,0.8253974163050579,0.9805157166943431,7.692811425
0.10237475554903519,0.8398801182322555,0.9811377028635346,7.69777597
-0.13669497942641773,0.8063990379059314,0.9799894276016216,7.702659107
-0.024084357558236298,0.8406106278160134,0.9801414480520004,7.707699999
-0.029108492740824377,0.8256943829716681,0.9801545727989845,7.712669927
0.07267265802019916,0.7689965469306929,0.9802383908173157,7.717766771
-0.020370107356820474,0.9351380382838161,0.9807374236238724,7.722677786
-0.053635644344255454,0.8117853850077873,0.9802285704636466,7.72792018
1.9970040672349543,0.8636599327359982,0.9803550692255389,7.732877091
-0.09334726474187555,0.8605214121655222,0.9806752452463221,7.738022474
-0.02565678897633697,0.873754187208656,0.9805257942636035,7.743000119
-0.04883152740379941,0.822692909517608,0.982035564898613,7.748007113
0.2047079403141753,0.8781527725118065,0.9820334117761924,7.75334767
-0.2083748692622112,0.8105675671358542,0.9815144507695758,7.758705574
-0.058145472494009566,0.8840221261652906,0.9818625691486315,7.765635999
-0.05992259572344991,0.8482033324764694,0.9811013678896594,7.769058425
0.07564268833949146,0.7562836283175577,0.9817971084056656,7.774483754
-0.006021039519116653,0.9567795128389405,0.9823823668404497,7.779112536
-0.03784819770037187,0.8287964559565948,0.9815092301617195,7.784086776
-0.09728068561082483,0.8454798914311994,0.9806458376255569,7.789539358
-0.048665839565259175,0.8334232457605827,0.9811068310310868,7.794074904
0.08231030535047004,0.7508091580615643,0.9810483098973568,7.799736627
-0.017467179991503753,1.0425544009573313,0.9812928013226605,7.804173433
-0.06067561584218582,0.8321222713397758,0.9807538764259984,7.809157951
-0.05626909354947636,0.8140801062969572,0.980430972602388,7.814190419
-0.05799860732963126,0.8179226422959072,0.9800929967440986,7.819546097
-0.06029911906910603,0.8126071310455434,0.9809922279726507,7.824109111
0.0893933760842568,0.8173020329945474,0.9817037975531373,7.829547008
1.9792414151430469,0.8164857555669658,0.982216989592223,7.834610626
0.02141354228175977,0.8740362993620749,0.9833612667696069,7.839766149
0.07055273433950049,0.8428893588428463,0.9833071087752536,7.845026677
-0.05232921824412046,0.8184216838680932,0.9842719542164823,7.850467458
-0.08760847743156742,0.8419348125989616,0.9848406329430945,7.857828071
-0.022501518252919885,0.9844510605835716,0.9862121616381563,7.859976789
-0.0003369902640316877,0.6941813212496835,0.9864806588601588,7.864992473
-0.07587688495097313,0.856245942261158,0.9867915256025689,7.871014788
-0.07859714644747431,0.8915713801445567,0.9878042970660013,7.875085625
0.16177487003775223,0.857323546555764,0.9877072549994913,7.880004821
-0.16887469316473702,0.8450256400494748,0.9882353471361847,7.885004401
-0.05356563351280041,0.8917118008103685,0.9889669165975643,7.890034326
0.04706028740800648,0.9406079489322036,0.9889516589021096,7.894995914
0.12505199271381998,0.7099013168328882,0.9887947620497046,7.90016709
-0.21857753003335892,0.8980069722499847,0.9890639223238885,7.905218614
-0.05256527582148233,0.870039991423435,0.9897371575339592,7.91021288
0.09684679886700281,0.826853309246485,0.9896377627806591,7.915199194
-0.1615806010680458,0.8715321160851316,0.9897778641163014,7.92024322
-0.009633390256037974,0.8931170742804606,0.9899652761784379,7.925116435
-0.031270521865506724,0.8593243806053971,0.9900418481507526,7.931407549
-0.04761937750752799,0.8469201164525381,0.9912174363933905,7.935959788
2.075774253686156,0.867762721275354,0.9917825255242767,7.941081478
0.022206020567005547,0.9350570068657849,0.991817385862808,7.946163777
0.006480043086824065,0.7607321023395855,0.9923396541625453,7.950819946
-0.08741952955938337,0.919930335630412,0.9929511927981579,7.955781889
0.0686536199749126,0.9058644510788275,0.9920592418996558,7.961211078
-0.18585609579344267,0.786301553164901,0.9930031670141563,7.96602201
-0.04179373702500909,0.8909033624242177,0.9940574326383735,7.971985048
0.04307937281386677,0.9223709252645907,0.9929874820667222,7.975926005
-0.05515977243423333,0.7891230609376512,0.9926844602232053,7.981027028
-0.0739690647043953,0.895921125143934,0.9928914953341219,7.985771882
0.023071944711323726,0.9572632576166734,0.992455423191161,7.990960344
-0.06371858890859096,0.746514597797036,0.9920621851806826,7.996177888
-0.08479670421338018,0.8660902294630146,0.9921634412272405,8.001049461
2.0384943469466696,0.9245304354372933,0.9918525967570141,8.00628646
-0.1380509298235697,0.8044320256679882,0.9923619612933758,8.011359915
0.014060952417842387,0.8894082394521406,0.9928669568561224,8.01612532
0.04824729259477856,0.9648422391545065,0.9930811779495643,8.021114711
-0.06696646501539558,0.8475081917408659,0.9928697415326946,8.025985505
0.03564971060081047,0.7989493454507698,0.9928309100762397,8.031380396
-0.04045576602197491,0.971312557230418,0.9927677994110992,8.036444939
0.09093706273596272,0.8893106055283964,0.9927904047561853,8.04246243
-0.059724350496109635,0.8212759374278455,0.9918660019252135,8.047444312
-0.08808168804485281,1.0120537940356522,0.9917164538000697,8.052602335
0.12364223064709388,0.8458744642108914,0.9905465963676868,8.059135412
-0.2267238321292374,0.8379696010119518,0.990846308499864,8.062680203
0.031162153607774325,0.9294436502859204,0.9906741734581669,8.067476859
0.040352783424233665,0.7864960872345335,0.990273493255704,8.072176062
-0.1485164013547979,0.9202976042743541,0.9904803004517775,8.077373344
0.056961095831715575,0.979814995535941,0.9898693405645751,8.082229243
-0.030798224237434613,0.7774086568835589,0.9892869206835349,8.087040944
0.0011515681961395685,0.8949001861602607,0.988768570087138,8.09264786
-0.04000525380141935,0.9344971041616205,0.9888674454731518,8.097868194
-0.09237815864002341,0.8922551104725929,0.9886940742993956,8.102758107
-0.011221431831432878,0.8431276426334396,0.9891869207995049,8.109662828
0.03862200991307836,0.9998606993561029,0.9895713515415749,8.112371423
0.08019892141284723,0.8348471014661057,0.9891690818807612,8.117492199
-0.2186102779903457,0.8605188404853154,0.9896335240127178,8.122771537
0.02520960727454856,0.9498981285143846,0.9898610057859658,8.127598141
0.13720681222749223,0.8068534088219014,0.9897177121170234,8.132356179
-0.19675219310347877,0.8784755442980667,0.9903014166736578,8.137635618
1.7214782821661114,0.9849247504117455,0.9906844659072082,8.142962795
0.4647786222955029,0.8145540639178398,0.990355488589803,8.147157345
-0.27590201368821077,0.8751196750749163,0.9905988610631886,8.152759009
0.039613837265253624,1.0071001073699104,0.9908536329483757,8.15870516
0.11209606986888458,0.8541838976756504,0.9901126968545582,8.163600197
-0.21808456634682807,0.8770355849476148,0.9902557967528639,8.169775224
0.07243142890318609,0.968998951807001,0.990024219540826,8.174498129
0.09775544153942696,0.8749512750223921,0.98978490972278,8.180116662
-0.21450788088103676,0.8888107779478769,0.989689511996299,8.185492918
0.039293778003288045,0.9649852647901433,0.9893437473682084,8.189940486
0.09322400267148015,0.8690481100608923,0.989040027483435,8.194751924
-0.22355869345792417,0.8342918918604769,0.9893488995739413,8.19973318
0.05690250895708841,0.9525258346051577,0.9891190457378323,8.204571894
0.039164212585975064,0.8322946876021753,0.9890004441952962,8.209467076
1.9482806009525968,0.8817601443691383,0.9890311012012952,8.214801631
0.006625039233831311,0.9706934461163903,0.9896977184518071,8.219773982
0.0006264243218865599,0.8404478274911796,0.9892925231327245,8.224610662
-0.1710580090221909,0.9086149440596497,0.9892543302314443,8.229488748
0.05291810877550942,0.9774942947106932,0.9893455767261089,8.234440429
0.02040075391582103,0.8571405110745071,0.9891362510201571,8.239314004
-0.1508609432130822,0.9137433187162005,0.9894589484941895,8.243733623
0.05157222397053952,0.9693278592564337,0.9894045094985617,8.248664519
-0.041021353773300843,0.8645893945894756,0.9892065366982093,8.254083116
-0.09534230278028417,0.9034509892824268,0.9893555387455816,8.259513377
0.08112930734944496,0.965461424801509,0.9894032580355752,8.264244094
-0.17753292622975342,0.8670959802752715,0.9889454262641735,8.268450941
-0.03383876611318988,0.9472759019755991,0.9898353393917719,8.273166865
0.06364886044879045,0.9453692632341087,0.9900942368864022,8.277888527
-0.0036149831944852634,0.9266045782374,0.9895203996186817,8.284011823
-0.11142188423771952,0.8926021264499059,0.9899947959586539,8.287864408
-0.011173515267691588,0.869279942085912,0.9903597978688959,8.292901314
0.060597889002975865,0.9745605906033865,0.9906239888629056,8.297972575
-0.06024258217555983,0.8836619103744684,0.9897613614095545,8.303738062
-0.06150012150101578,0.9023632808620258,0.98985182182555,8.308579528
1.7562168947962322,0.9336790532580646,0.9899135023206804,8.314097266
0.36858795482546863,0.8155656331196756,0.9896777583488476,8.318614481
-0.08949068466348273,0.9644226020836344,0.9898184641654659,8.323664014
-0.024516209430061178,0.9022930182757173,0.9904742690803099,8.328140819
0.07791228358860718,0.9551810339203745,0.9903584065523805,8.332971145
-0.0669401064438624,0.9213859018831568,0.9899879494601435,8.338130093
-0.04215369523577339,0.9115228283726484,0.9904044905534799,8.343854354
0.07558065263032562,0.957858295215081,0.9904639850157962,8.34912825
-0.13894447189756987,0.8698662194492025,0.9903523440039488,8.354118517
0.07217246877081293,0.9432206985199861,0.9903940863301114,8.359053572
-0.07188647336868545,0.9306063480309833,0.9904537576988114,8.364056173
0.08179201754936923,0.9818928797674419,0.9902320800229394,8.369105163
-0.1414118776163551,0.9092216506995184,0.9906940957839475,8.374048874
0.016415235151428273,0.9055380601677812,0.9907419823497366,8.379562831
-0.0037447282494373476,0.9162946480878954,0.990450681232983,8.384760756
0.11472023650377045,0.9559788094499582,0.990773671935875,8.389700587
-0.03880081887369363,0.908127891391814,0.9904049828059988,8.394582824
-0.058614763963744605,0.8968923026531868,0.9899282036762724,8.399560835
-0.0036108640612008865,0.9226801374777485,0.9898560405703946,8.40445185
0.07880346779813359,0.9211803488924254,0.9900866937491992,8.409395386
0.07498949775324781,0.8725721073508755,0.9898824677919754,8.414164739
-0.077715580097195,0.940027027560467,0.9894373777283133,8.418936256
-0.03875768733369203,0.9196962897281663,0.9892211108009493,8.423943641
0.04242310647294445,0.9469579499585211,0.9895056252352314,8.429480477
-0.1250445980891543,0.8962544250611745,0.9897532103906366,8.434264288
0.013062224407522739,0.9496542194330311,0.9901608267544216,8.439088845
0.007191603899866346,0.9290019659909201,0.9898541606352237,8.44464189
-0.02523551753158535,0.9285599144879564,0.9905905536856415,8.449613709
2.152622367491931,0.9371567665425811,0.9903768094467444,8.45468685
-0.15620066145571385,0.9283595892728445,0.9909216710615908,8.461138165
-0.030089507381513787,0.9383172216553647,0.9906257504678824,8.465417761
0.022867985589021023,0.9486342354273758,0.9911942284392673,8.470334859
-0.01195088555859775,0.9668224397725619,0.9916980369885273,8.474981519
0.06721629929034999,0.9366203912288602,0.9914896263150409,8.480328595
-0.035090156144209475,0.8758526457842891,0.9916050324642742,8.485533018
-0.02838502982465167,0.9691023541070837,0.9913850897403114,8.489898098
-0.16863054273898342,0.9204410586949088,0.9935266875149533,8.49522685
