acc_x,acc_y,angular_z,stamp
-0.03805366600222037,-0.0005467054395609348,0.009733192685096908,0.00091869
-0.0417149907681459,0.006128536548391389,0.009853222689042835,0.004140834
-0.008621968749126081,0.016268256778234833,0.010244408052651525,0.009453052
-0.06071571709334574,-0.039586618578443485,0.009958414481606215,0.014058779
-0.10963675375414811,0.017622680219160268,0.00989363393450372,0.01965681
-0.055139285371389436,-0.00907366514079393,0.010120609756946865,0.025793899
-0.05965416017418065,0.026942281556940378,0.009806455968298336,0.03045427
-0.08719098197662034,-0.011968759224784882,0.009877713595555615,0.035563826
-0.046950854990983844,-0.012037708949202613,0.010332687053917482,0.040544384
-0.05500285191096818,0.005244725506429243,0.00976284439653347,0.046131682
-0.043837837015229905,-0.004217359713741485,0.009937327037784357,0.051027906
-0.0587678570727298,-0.0106752219555413,0.010473240470886621,0.056036253
-0.04285514878694947,-0.03530984175285783,0.010101422472156795,0.061027105
-0.04811555541643162,-0.01152032266045852,0.010305525779850952,0.065740477
-0.03382902852925458,-0.026421597635410674,0.010006608322713438,0.070738367
-0.049611456245290196,0.015073885679877002,0.009989674578482014,0.075749709
-0.05539518057892467,0.015011184554923266,0.00974745020349447,0.080709709
-0.05168446230634543,0.03128059389157105,0.00979391317929193,0.085856874
-0.03646925831645316,0.004787571435556864,0.010347856335358886,0.090472866
-0.06187405517027687,0.02160687912975547,0.009943398528550558,0.095619259
-0.032274466139722145,0.014141559964162654,0.009812612995152663,0.100706773
-0.0626569187168389,0.005863714686306125,0.01001624465606462,0.105359206
-0.058618369064934964,0.0015294749689310175,0.010136383776002962,0.110278991
0.7250384776125892,-0.01953746371359654,0.031596169725478455,0.115206078
-0.11767588809388752,0.027791942255368317,0.07407024924903922,0.120238169
-0.10306256005725833,-0.040248440536812834,0.129147426946739,0.125032734
-0.14340983191859427,0.15664058292777236,0.1931384734462256,0.129959267
-0.06788538836277741,0.050576621202811034,0.26004678331848685,0.134831816
-0.03950801446967719,-0.20029931027204725,0.32592485061357845,0.140172127
-0.09371000409544099,0.14817052080416176,0.38707709975329824,0.144646515
-0.8304258598553237,-0.014197245542147631,0.4413636367656711,0.149846397
-0.018808915106026336,-0.11096168198768099,0.48544494925332504,0.154845099
-0.05703937956853514,0.12669052335512035,0.518303751154249,0.159729532
-0.027169664066207536,0.003970629171442563,0.5370252892396379,0.164793911
-0.024574284144807387,-0.09172802477442467,0.5432473793583154,0.169686359
-0.08643462685534638,0.12787183203810518,0.5364483111569582,0.17450871
-0.03812854501290266,-0.01831021752780425,0.5190742457076067,0.191355469
-0.0009830161258500055,-0.10017147016855106,0.49205026606743224,0.195234291
-0.04586296105421382,0.0995282518778191,0.4589468107548054,0.196865767
-0.04506094782638665,-0.012945667821609495,0.4214800428170824,0.19870059
-0.023106026590985193,-0.09669797805390157,0.38326785449765777,0.201429653
-0.03140096013358023,0.17338097809999647,0.34708450767158683,0.205966151
-0.0745111397612088,-0.024046718500612255,0.3133000457959014,0.209585974
-0.0485456945245222,-0.19024296116114217,0.2857021778729911,0.214996458
-0.03146703631164041,0.12035889843276146,0.26381347929435034,0.219518601
-0.041961379274186,-0.012684673870133313,0.24897060813672606,0.224418368
-0.011431447191163652,-0.023405021860729965,0.24207338536867376,0.229393245
-0.06940249190237831,0.01800234508329498,0.24210437702772886,0.234470583
-0.10036031375515304,-0.09088790007631638,0.24863154600781606,0.239395167
-0.042510691604980146,0.1132489147028796,0.2611934004710252,0.244350188
-0.05969910424859948,0.010045004068301078,0.2780904802982794,0.249359081
-0.07086173578701983,-0.13426163131832203,0.298119406040129,0.254369967
-0.06531289835214484,0.15258927513914258,0.31912292130901454,0.259410844
-0.05611295454959827,-0.004814287615830532,0.3400248332973619,0.264256556
-0.08000390752905669,-0.15260828009717756,0.3595662559215976,0.269541907
-0.07374145030972312,0.19552209174887983,0.37735292928773123,0.274386644
-0.03272432403050225,-0.027308945553373896,0.3482198272496542,0.613452868
-0.06231589890059895,0.031184512549564284,0.3465940113179052,0.617219164
-0.044082797081846446,0.012392242527100916,0.34516411086553395,0.625330581
-0.018197788905356047,-0.05883803638461145,0.34448459189749153,0.630468971
-0.06458633428558219,0.016332235314857346,0.34326820176773204,0.635470385
-0.05930326614950345,-0.03772362427043247,0.34226438976969287,0.640269057
-0.06126114663852408,-0.007935625193364642,0.3416539285681818,0.643592191
-0.07345492658658799,0.009265935815926822,0.34139735348443534,0.647089687
-0.05366913142996746,-0.016325817646536636,0.3415837823107612,0.650798679
-0.06525662120352253,0.05509538185486452,0.3422118726879161,0.655555255
-0.057280135751048684,0.0054622276689880135,0.34256300128959577,0.659127792
-0.03748194993804361,-0.02925802446593701,0.34353028243144806,0.663066002
-0.040977187454347475,0.01568946997432846,0.34353277755260514,0.666498574
-0.04311994993891026,-0.037139550157069205,0.3424928226438465,0.668206222
-0.06937664570070046,0.008725227375274822,0.3414679860096404,0.670050247
-0.05933273532146516,-0.019562486835025684,0.3402494045451225,0.671937625
-0.05046376275813764,-0.04350234443247524,0.3387943759820923,0.67378348
-0.029375038736215348,-0.018375925299073136,0.33652666187042957,0.675861749
-0.00320301667134934,-0.023444757028230158,0.33488588196925106,0.677395366
-0.06445184585457077,0.03351178389644405,0.3330405211006191,0.679216073
-0.07407425297249834,-0.019528775393738665,0.33191938793995907,0.681098177
-0.06838968425105878,-0.006574893104161464,0.3304425914439797,0.684008568
-0.07350558365179818,-0.009884702069956113,0.3299250617992867,0.686563164
-0.021165496772214666,-0.015321651431927033,0.32954852103448534,0.688218244
-0.06676139348704915,0.024832058983429457,0.32918561710187455,0.689939011
-0.028238819851114667,-0.030519333477418118,0.32965237784332724,0.693421415
-0.07092557425121279,-0.0007674910977485691,0.3303392578947447,0.695908105
-0.036751345519684286,-0.011529201629593484,0.33098371721500036,0.700951546
-0.07240602114286665,-0.006801659945063266,0.332196422954423,0.705979353
-0.030742704452922133,-0.013642686110454744,0.3330003117442174,0.710927134
-0.047467164871460785,-0.0250623225824316,0.33446891624006353,0.716468431
-0.1190788679653889,0.016574370421270142,0.3349887641147448,0.721311644
-0.08748390316403516,0.020012453402144,0.33363167517587694,0.726241014
-0.02279658365290779,0.002468026783972843,0.3258768684586869,0.731280887
-0.09328626818003614,-0.01894959436390089,0.31408294667671777,0.736057544
-0.05914683971477768,-0.018072173069326982,0.300528847419537,0.741060684
-0.06457957649251306,-0.017816788196556323,0.28111480039549636,0.746627953
-0.06137660086297912,0.005139819585946306,0.26891936662437405,0.751264022
-0.03535962333673982,-0.01808498190571465,0.2532778484753176,0.75593307
-0.06671760390586637,0.07209318431243698,0.23927977252948407,0.761251329
-0.02722136336072456,-0.055579749335504594,0.22843051959587732,0.76635842
-0.06640798113900132,-0.021602057600469227,0.21940444376623547,0.77122557
-0.04437449320474959,0.090285577455692,0.21402347950768122,0.776319641
-0.08531424442023845,-0.0775184928391928,0.21219190672380653,0.781330464
-0.05872044807347399,-0.006073874599609176,0.21353582587771627,0.786344187
-0.027578529905896064,0.009551403896920337,0.21697647155580624,0.791355901
-0.07392776147448953,-0.06720232862882766,0.2233214179823576,0.796224548
-0.05195678453092534,0.03296375208540852,0.23143528263873617,0.801203903
-0.04183888069766694,0.06713388139312051,0.24010586611960744,0.80860851
-0.058795363188456566,-0.039565076420611967,0.24991849023696244,0.811367047
-0.0535697971437059,-0.00960506718529651,0.2587136147482029,0.816423166
-0.03451141853299293,0.014400358409376302,0.26739496528742945,0.821213034
-0.07365344393781038,-0.016562190856571957,0.2737756432352596,0.826155491
-0.06722020493793247,0.009853641119846535,0.2785081204566405,0.831196255
-0.040522020654920575,-0.016703789534401183,0.2798898133420165,0.836183267
-0.07401035299178654,-0.005326384178406848,0.2789858404702488,0.841260931
-0.07156378272250492,-0.016980252815370578,0.2760857950831274,0.846270139
-0.051924922226197885,0.00335403679127165,0.2709071376975608,0.851140464
-0.06672013368657907,-0.0084932468843226,0.2648297010873027,0.856080448
-0.06853314480455822,0.005182625037418296,0.2578679356004755,0.861806785
-0.08163950219913566,-0.03634792827157737,0.25049952108148565,0.865975925
-0.054562024212313556,0.01662077037550374,0.24329977989746976,0.87121236
-0.08108699430102179,0.037642663723614134,0.23727393610039757,0.876141875
-0.0690978846994822,-0.07550407939216941,0.2312038594590577,0.881099684
-0.05565205383705518,0.0013855318796052321,0.22725182362435048,0.886079666
-0.06787990776323724,0.02240750604002999,0.22453555618045373,0.891077611
-0.0720840403075179,-0.011338657124140804,0.22281966833227182,0.896000375
-0.018394456906101194,0.04471409712862712,0.22287141081824138,0.90116494
-0.06715566874933311,-0.10175724840574657,0.22414339753887297,0.906701298
-0.05047055658597553,-0.011730091307949943,0.2264224056318187,0.911066443
-0.032048260365952416,0.007327157711423653,0.23057350679510982,0.916049345
-0.06986523436619407,0.01907041570212546,0.2342577838552574,0.921094513
-0.030005182611165984,0.04358650028979848,0.23854295564382566,0.926067455
-0.07863464748868257,-0.044815351832308545,0.24213535252499466,0.931033857
-0.05834445475536297,0.0016331829567991412,0.24451737422391526,0.936062854
-0.01948400882529058,0.02927010532233612,0.24541441483806334,0.941090054
-0.08507038134347353,-0.01744031641491537,0.2460652694476204,0.946051351
-0.07690033630118118,0.005414494889248562,0.24553630005297322,0.951058192
-0.03787773736182161,0.008845976333779539,0.24328923645590458,0.956236886
-0.061967623367568815,-0.05104797231096895,0.2412729422816749,0.961348989
-0.07259804784837928,-0.005715212587649411,0.23883929521970523,0.966139407
-0.04442019464174301,0.00612375452216973,0.2354452053264628,0.971221016
-0.06790350818604239,-0.014324126890591624,0.23245804658402092,0.976417179
-0.07003248317185848,-0.020051063920635756,0.22942573068756192,0.981472051
-0.07218182841672044,0.04162776540401683,0.22675117195804118,0.986571792
-0.08685863818828556,-0.03747877318363325,0.2245624192472278,0.991497906
-0.03535937989706936,0.007302530684955652,0.2232823918400925,0.996464108
-0.0233884107460382,-0.021113103342574917,0.22196514465297704,1.001753888
-0.07322881715444732,-0.01025789567191282,0.22164563843691776,1.008063653
-0.08118583373120629,-0.007793137369465734,0.22224063050744364,1.011535771
-0.07718349182584186,0.0028740780434918373,0.22367089475160112,1.017686961
-0.06213705231367972,-0.012150180599074075,0.22418984693156352,1.022548189
-0.0730110119024941,0.00951574310547008,0.22584161887661142,1.027566452
-0.004355123462214332,0.027818938899156286,0.22735164049529574,1.033066388
-0.10302708295029828,-0.04316751383767013,0.22854928425681975,1.037433397
-0.037576760194201246,-0.02607455408330677,0.22837743446303413,1.04252651
-0.04805985951113446,-0.001993053860037307,0.22759057550238485,1.047479452
-0.046502291862294626,-0.02370032271333274,0.22595248380551802,1.05278352
-0.06809776842440382,0.015248137417036742,0.22466226976962222,1.057420951
-0.050627773864717465,0.028028655929125873,0.22269525936537019,1.062452856
-0.07013689919776508,-0.056756005122816096,0.2212242827505099,1.06751546
-0.09124045811136564,-0.002453210973270418,0.21941961384909903,1.072572112
-0.018596762326601634,0.009384105905291694,0.21779567920573412,1.077369582
-0.04442973748087868,-0.04669772924842273,0.21596994846200732,1.082503866
-0.022561308414743846,0.0298549608117874,0.214884865672445,1.08753046
-0.03232801287030093,0.045054684524822065,0.21380701417887268,1.092552514
-0.046413818006811804,-0.024933785892558707,0.21382155236703,1.097490422
-0.067255336411781,-0.01797089674853366,0.21350105552024123,1.102384523
-0.025098720817558085,-0.015541133735068435,0.21333209595432454,1.107567048
-0.06915815198879936,-0.005572140770830247,0.21424376682604593,1.112641691
-0.0765231943345778,0.007679190853510348,0.21544269663560572,1.118055118
-0.0384234291104973,-0.0058908878981807355,0.216191736212314,1.122948332
-0.06420510456496815,-0.041981235952967134,0.21719502317081402,1.127989858
-0.03341576658986158,0.01557396079367203,0.2184094693461399,1.132937175
-0.06149861974605546,0.01872809298771235,0.21876612500997253,1.137680874
-0.07460718963620187,-0.025834875169321814,0.21809121893291802,1.142541498
-0.04951798826417131,-0.047205729843813805,0.2167729792697988,1.147662285
-0.0825262519385178,0.032899337205638673,0.2151699745843183,1.152648719
-0.08626872206394184,-0.030481150237103613,0.2135718429833504,1.157581615
-0.041740436064135106,0.019265963645612283,0.21116918075886876,1.162387161
-0.08866251086397949,-0.01143946974647152,0.2086015178177759,1.167396331
-0.04636640409413863,0.007336850702328392,0.2063860243984616,1.172355336
-0.04835623414984226,0.030187454711158405,0.2045208591382174,1.178637366
-0.05671732021906962,-0.018580238287401872,0.2031249591120439,1.182322954
-0.029289204782988368,0.05348529507221493,0.20207018022032736,1.187392356
-0.07491675824125112,-0.061564249528893,0.2011599195953844,1.192352504
-0.03707836602329041,-0.034631320531005566,0.2011935638540191,1.197649337
-0.06018522099605564,0.0341039003943158,0.20125262052927848,1.203105321
-0.06906835960030126,-0.009503800864869686,0.20106328082926989,1.209718104
-0.025526088682157725,0.02055499122236103,0.20126817604060118,1.212261319
-0.048663489739437196,-0.028359435117495443,0.20079372207942803,1.217102497
-0.03725004285869654,0.010138017898863295,0.20040062518405863,1.222130661
-0.04405838971505094,-0.019185029995851016,0.20029833887614124,1.227147669
-0.030986066296114667,-0.013027304708401103,0.2001003675604171,1.232275421
-0.029103767085150653,0.02038261363175674,0.20017344602688875,1.237400746
-0.06555665325947986,-0.011517222158700508,0.19979329649873123,1.242269113
-0.08618089710274549,0.020623572125093012,0.19968600703253409,1.247300642
-0.0479558863308769,-0.021470401148906873,0.19955538975214523,1.252563187
-0.054752103685452705,0.01996689829968204,0.19944903555769594,1.257423777
-0.03689156833592187,-0.0040388389487126634,0.19979879800507647,1.262588081
-0.08234053130991749,-0.01821131492115994,0.20004022980077316,1.267480351
-0.07275295291708103,0.008329638281840903,0.19978801149847428,1.272529646
-0.08454315363718294,-0.00848847309853178,0.19985010466316103,1.277572833
-0.03297930229305307,0.005129792913845682,0.20025027437384232,1.282470559
-0.07736077780359847,-0.03298663518210028,0.19984441335571454,1.287390442
-0.06922184937646081,-0.005444821624570329,0.2003899621140415,1.292415734
-0.04460728537321627,0.018560202516453024,0.20023098691200797,1.297290265
-0.07871243936448583,-0.023281313614851296,0.20048916062591066,1.302094179
-0.07456702954438571,0.008924472272276414,0.1997679714192717,1.307386047
-0.05178182205758855,0.016125639863227875,0.1986252289697803,1.312516366
-0.05834856198134919,-0.012270566712346448,0.19666165301961172,1.317222064
-0.05673032839968026,-0.0018664241130711941,0.19520991732197882,1.322380112
-0.04465856617890703,0.005583121615998746,0.1927386984210306,1.327275718
-0.04608351768077524,-0.0367550419350471,0.19016291335879437,1.332156352
-0.06216584790290404,-0.024440601416015055,0.18829570099955809,1.337128791
-0.031110853138396705,-0.0022537169490725803,0.18660567172740458,1.342160582
-0.07653423766123905,-0.04765302741877506,0.1854807682332504,1.347171651
-0.05644563310309725,0.042492489245199126,0.18421848962601,1.352068758
-0.07268092088380461,-0.03114690204030112,0.18391397486979627,1.357042115
-0.04440482753445323,0.02654672587273079,0.18395368740445858,1.362106486
-0.02599427419740399,0.02969570561763324,0.18399201202719673,1.367053634
-0.06206475593409374,-0.012087742976124612,0.18455214485582097,1.373104424
-0.08884025675800215,-0.0202751593854677,0.18552292301032072,1.377172621
-0.03403419249140892,-0.0026425702658077095,0.1869151073603413,1.382363574
-0.05217190231250965,-0.025586248586486338,0.18806069911327644,1.387485471
-0.048896329953676786,0.010358975018362039,0.18933695583372184,1.392449855
-0.04719566979428917,0.0030754867888224662,0.19057226372516187,1.397334026
-0.05934368993024918,-0.014270568347402462,0.19148186435356412,1.402508523
-0.049709345075584825,0.01807039349145346,0.19232114676393858,1.407927654
-0.06719571254832007,-0.010474658752609157,0.19175000324691002,1.412517397
-0.015808874350095835,-0.0034364957404159286,0.1906146348376458,1.417606317
-0.04693574941169607,-0.023201545593845855,0.18892935335787567,1.422456623
-0.06499313030805323,0.01417665318309459,0.18651267082405054,1.42749581
-0.029896757334790865,0.009112393709486955,0.18465080731742547,1.432413518
-0.04844400360255669,-0.006885763340717015,0.18177074453321632,1.437602993
-0.04064504936538794,0.011306936247195299,0.17971818168653353,1.442298367
-0.06982903655844408,-0.0064849977736447725,0.17723790440376866,1.447448647
-0.05730238848032385,0.005494463468823746,0.1752703593958082,1.452332222
-0.061760886687053776,-0.00473517512466743,0.17413913013596435,1.457300366
-0.040021154553080626,-0.017064725936313977,0.1735097397936563,1.462284917
-0.050083967536582834,0.014891239898699293,0.17299137656703328,1.467574519
-0.056975634062569884,-0.05660708751020806,0.17316820436119923,1.472272004
-0.06305297453855281,0.015012070535291827,0.1738389453874412,1.477481299
-0.0755259420665368,-0.014418974022294296,0.17451995998560924,1.482699096
-0.03439953774804002,-0.011328020638754854,0.1757466022232214,1.487470654
-0.04475737194840676,0.024326200256504726,0.17712165241197947,1.492889983
-0.06910123223816297,-0.01301730373492524,0.1791822461665678,1.497558261
-0.026347052245681492,0.0031274023432195774,0.18014062786319518,1.502364112
-0.06896437125181025,-0.002568185789912787,0.18102204012317843,1.50922518
-0.06233012208885239,0.017738627387779336,0.1818649927000077,1.512413951
-0.034377552982581744,0.0008433475194525777,0.18088640862129327,1.518145568
-0.054365069540940926,-0.023650250034724936,0.18027688677787287,1.523158253
-0.05355077700118144,0.023606568188309026,0.17858932535604075,1.528396599
-0.043057777011019746,0.02022443526336349,0.1765504644465605,1.533685237
-0.0449189210119566,-0.03149010998256976,0.17444883998514543,1.538449067
-0.041881492752784806,-0.014137577128947748,0.17195731333560793,1.544036599
-0.057652431844677686,0.025783456740050878,0.17037297330471948,1.548453239
-0.07908111875469812,0.010014087106209754,0.16783443478148438,1.553461011
-0.035379499214235624,-0.010376026707792651,0.16632371085780645,1.559263308
-0.027750699670241567,0.0018130279208239154,0.16579305887771503,1.56405908
-0.07751198029887589,-0.021819596084127927,0.16475747956212125,1.569401792
-0.03682319689551117,-0.017359088891364723,0.16422823944624912,1.574670505
-0.06417976295129511,0.015151179558256792,0.164392606897389,1.579811594
-0.022652225073716406,-0.02546379359299982,0.164968808351019,1.585178533
-0.06999448290296555,-0.004877475311625672,0.1656765264327373,1.590042645
-0.03444054806934806,-0.0031027175444207668,0.16713651955738684,1.595394523
-0.08548194200262824,-0.019136748213137825,0.16834045892214564,1.600980564
-0.06208014081155539,0.02412598562949411,0.16999237625792593,1.605401291
-0.03520766607129863,-0.008193743954087843,0.17115211839926991,1.610389527
-0.0529121423668541,-0.010541095586021097,0.17186058531528672,1.616887534
-0.05632633005068417,0.0030348648615233717,0.17139546343904566,1.621085008
-0.004674688657125052,0.0013081562238694382,0.17080618948250997,1.625955006
-0.06504849725828292,-0.01649295336114108,0.16949531562722497,1.631670215
-0.06172512370225984,-0.0170264118251459,0.16795204259091998,1.636400497
-0.04884556449905505,0.01790863469672107,0.1659585055291743,1.641672635
-0.04284960293136278,-0.0010062277036267005,0.16396835192528572,1.647416263
-0.03604567258827727,-0.006143283984841663,0.16249367056848377,1.652355502
-0.03228543732956768,0.002895589198232613,0.16025833341825008,1.657384485
-0.06334179652681206,-0.0006571626132210497,0.15873433694653347,1.662166628
-0.06286714469708853,0.017145104939765343,0.15722788915722424,1.668937691
-0.059898314491880975,0.010615953079455794,0.15663198828421532,1.673981981
-0.08189812442414217,-0.01952252309104135,0.15649056425432892,1.679883083
-0.07143828609486949,-0.009865617003358734,0.15595080937913366,1.684127591
-0.03542431765703363,-0.006843049705911559,0.15644809538325957,1.690316978
-0.07550070537784127,-0.03038164464277547,0.15751032116678637,1.696048256
-0.03963684085225211,-0.020841949512853293,0.15782949480820116,1.700884321
-0.044017494484299036,0.02356770597162621,0.1593211193603214,1.705478608
-0.05096295998965526,-0.05015574879594127,0.16022099068784765,1.710067108
-0.04999823704331968,0.013071910240280335,0.1615618925230935,1.715026135
-0.05844974527467696,-0.006270637242270583,0.1626300095059604,1.721469417
-0.08326857484202163,-0.05200038773597957,0.16206346354889842,1.727605647
-0.05549227434290197,-0.01786492004177936,0.16194484552492958,1.732062437
-0.0045800038699777,-0.033128866154551656,0.16085593957672784,1.737026243
-0.05633336560862306,-0.019266420104679865,0.1595063370079862,1.742314966
-0.045514479191540794,0.0031018633931779397,0.1577851950705736,1.748162493
-0.0630256280337314,-0.01872993032194697,0.15580498005131077,1.753038623
-0.030088187805044186,-0.02738524100887283,0.1540125117884385,1.757873832
-0.022356545171373546,-0.03158498459968015,0.15263349441262805,1.762883904
-0.0412167867201013,0.020036321327811683,0.15070508710897984,1.767601811
-0.0884168188140705,-0.04084793375940342,0.1496746673524139,1.772414612
-0.08007846325816166,0.011187846026655327,0.14871643142404614,1.777117973
-0.013169964916645245,0.02722417675981466,0.14839177298659528,1.782248316
-0.06918131544099156,-0.05361451065531571,0.14842890942116915,1.787506385
-0.06061839657806351,-0.016128528604063764,0.14826082977847574,1.791990179
-0.04093108092769372,-0.011139728155744641,0.14918495584478456,1.797039822
-0.05237281324765946,-0.01989154078326639,0.1494672125476154,1.803078475
-0.04076778115202938,0.007501277071264227,0.150515212536217,1.808138128
-0.04090426329991927,0.036945941039332304,0.15161466622520797,1.81309156
-0.08499954654517948,-0.03401428769460533,0.15247296312716702,1.81778948
-0.04152335224245394,0.014560514521129955,0.15362784234360982,1.822829458
-0.042896746816704495,0.0019033719639785038,0.15427175321811862,1.828206422
-0.06787691186784464,-0.012236149509825192,0.15395885277398894,1.832199923
-0.049517697209108445,0.027785839541184867,0.1527702425145713,1.837283589
-0.017791220499055543,0.0002971434488133126,0.15159401168343772,1.842239445
-0.06681181593339124,-0.01206605296873121,0.15065174382382188,1.846902477
-0.05056423765356361,0.02129865926302065,0.1490220125087676,1.85201744
-0.045829930621790076,0.039046023078557555,0.1466479054897254,1.856962032
-0.0685941113655077,0.011702725796947191,0.1455584411594932,1.862097182
-0.05779515358101216,-0.0011667452882283083,0.14369666715387414,1.866973023
-0.05855853210701323,0.021369811616814303,0.14219987285146787,1.871993042
-0.04485777466961335,-0.012215245007917052,0.14139734911188714,1.876333094
-0.057420515698297786,0.015795562587998933,0.14069186136077558,1.8811508
-0.019507721521897163,0.018618287486595636,0.1402498526260749,1.88623657
-0.06862338638017978,-0.04591856169532832,0.1403930710788295,1.891196254
-0.0738369554682,0.012325357055974425,0.14069010253321756,1.896119177
-0.04844824296468796,0.014389275276697155,0.14163589097461382,1.902492338
-0.07030132823698995,0.0027807743174017296,0.14227131903942966,1.907295042
-0.07100287089855092,-0.007763548956419571,0.14333430706607642,1.911996771
-0.043807519227618004,-0.0018322007499526251,0.1446322737039762,1.917452979
-0.05859702245306521,0.013066263158544617,0.14551180278776288,1.922407592
-0.06015097287404521,0.028040436359784565,0.14638103188513268,1.927094155
-0.05718949124078433,-0.019259675323168676,0.14602575529735687,1.932729648
-0.07548278523387378,-0.026515094640112605,0.14534292290051462,1.937486919
-0.04010187952231796,-0.007959064445689374,0.14428506837293814,1.942161444
-0.07636708261703692,0.016970788494143504,0.1435900856643222,1.94706102
-0.09284797222001408,-0.03033766201636752,0.1416010152686652,1.952160016
-0.06364996814673818,0.024153872389219185,0.139683200507816,1.957323175
-0.08543396250940408,-0.02132761526364901,0.13846026716983634,1.962468796
-0.0330055233557508,-0.05408978039536462,0.1369053986080521,1.967281392
-0.039488283412339814,-0.006877134599276512,0.1356874585898721,1.972220854
-0.05336303145605485,0.033541154987153474,0.13445173622069692,1.977197142
-0.061955362430413004,-0.00987645265445689,0.13393056403722933,1.982673976
-0.09353205478481705,0.010678821664048975,0.1334154401853012,1.987123542
-0.0488483931800592,0.015434855440415715,0.13314646621275086,1.99209619
-0.0714203978213937,-0.0029405890801581444,0.1334565761264747,1.997382433
-0.03604690854122493,-0.01387010179208467,0.1341435328537889,2.002300212
-0.06156206599468261,0.023030022586399145,0.13480353893583846,2.007259708
-0.06118719030509128,-0.01328820030012212,0.1357418063869733,2.012860329
-0.02799973057243913,-0.0004143462019580934,0.13601794923460322,2.019902194
-0.044577675114943226,-0.016929182396480367,0.1375054151547521,2.023113489
-0.05919222527764018,-0.015352552063338213,0.13822162638048074,2.028193229
-0.048122035776644596,0.02388231865432495,0.13851837624244948,2.034097599
-0.048717056356805254,-0.009531253400646778,0.1382230803568496,2.03870144
-0.07016010915913821,-0.014392338817836206,0.13769611267725912,2.044145376
-0.08784382894798257,-0.02595587173942177,0.13619518406219042,2.048905518
0.0019156371990270635,-0.014106787156043974,0.13484657912427445,2.053463483
-0.05742815288594354,-0.0017529529106272475,0.13337862644124776,2.058901523
-0.0830689544243273,0.02419568133966156,0.13169287498436458,2.065043048
-0.06279706245221733,0.05437035132523767,0.1301289133568578,2.069658177
-0.05296341500588026,-0.016687836447403265,0.12862626139367578,2.07468891
-0.04682039944817151,0.00818105525653496,0.12768625173704048,2.080340021
-0.05115547123905882,0.013038010787102292,0.126971522970936,2.084730357
-0.036158367947332834,-0.024668460052592087,0.12642263262711284,2.089812161
-0.04555558799188242,-0.03097504285402128,0.1261553973770452,2.094422108
-0.0574169326583385,0.03665144351465315,0.1264813753772744,2.100067304
-0.0825319440113421,-0.014217679352483994,0.1267679879876539,2.104833104
-0.09239683004485173,0.002571101357445138,0.12740420011362014,2.109924753
-0.05005562898338935,-0.01646699287102084,0.12855148153692658,2.11503672
-0.0421720908459869,-0.02618028617686234,0.1287995496778175,2.120257185
-0.022523289638139092,-0.0001535412492971581,0.13010040685797122,2.124997069
-0.04098825465167609,0.02382264945209118,0.13082813741378038,2.129703019
-0.07322800964317365,-0.017760361699602698,0.13115875377534905,2.134336081
-0.06458197880658119,0.022946983893629314,0.1313238414659191,2.139415614
-0.07153787440605881,0.013524129720419251,0.1306423385756147,2.144479433
-0.052395689618508434,0.0025412908398644426,0.12971581632610418,2.150021881
-0.06127543459885994,0.025103821012799978,0.12832593678225274,2.154589566
-0.044256576901413464,-0.02024703420898117,0.12738597626018874,2.159556405
-0.027068808513194122,0.03227445762537485,0.12572482818977712,2.163998159
-0.0454180720048752,-0.0021146818781249818,0.12389214619681888,2.169409312
-0.05607723087177474,0.01292772075572006,0.12253708651956308,2.174125013
-0.06190336273723585,-0.024235624732337247,0.12137577013564577,2.179498718
-0.07692077629670475,0.02219043343924445,0.12052691227229545,2.183449203
-0.0382431467159724,-0.012274431885532809,0.11993474042485973,2.190351431
-0.030049245978377263,0.013034773664911563,0.1198309995750938,2.195231969
-0.03280472995568859,0.011869153496020511,0.11955081795084987,2.201005874
-0.07192638704713324,-0.032456035998708235,0.1196727714623415,2.205820378
-0.05349026784967347,0.013736657690519904,0.12045575611835461,2.210463278
-0.05174736124213077,0.0030418932976978893,0.12126123653292087,2.215568507
-0.06889999404777851,-0.0014036275321827303,0.12211584118324904,2.220691306
-0.013034627386668232,0.01074713105117291,0.12313697245470662,2.226167902
-0.05992039820403966,0.016140503625954393,0.123309749386671,2.230944908
-0.07171729080471406,-0.030457967427350737,0.12431297662610327,2.236995515
-0.030139654419518904,0.0018073983727947586,0.12465226332138978,2.241028452
-0.04699985292537811,0.006602292627356433,0.12511636194931564,2.245378689
-0.02207397953348047,-0.003738078738983909,0.12399262194206763,2.250071825
-0.026039761367407835,0.015775250342864554,0.12386779475888532,2.256644257
-0.03617280592722505,0.02947454802724135,0.1225609624499497,2.261518964
-0.05760101771393987,-0.019423923445346946,0.12160788170233086,2.266556034
-0.09317971265212321,0.010169249280614185,0.12060765172897488,2.271295437
-0.029939737766688502,0.0067755239447844775,0.11935992592371622,2.276139422
-0.07048718959293183,0.01962439911440081,0.11861844556207218,2.281130281
-0.062240427898062306,0.013493519755002221,0.11772351454984335,2.285713116
-0.05719547829424318,-0.008129054577848127,0.11690321969482524,2.290533083
-0.07622078211778222,-0.008313732952531985,0.11671839202291488,2.296518296
-0.06060992745736309,-0.018366893080629224,0.1166952660987604,2.301681847
-0.08470761175054073,0.004133468303726452,0.11608875026119994,2.30689
-0.052381220361053256,0.017341162587950376,0.11532883792297888,2.313909722
-0.06539266463978145,0.014242937244358496,0.115104865618647,2.318684229
-0.06747223570809988,-0.01581906943377297,0.11422538716360318,2.323398346
-0.04995263256634723,-0.017910529570841507,0.11338255696885517,2.328165023
-0.05207171411920675,0.01758712144687704,0.11287530299182011,2.332720975
-0.053666955204532796,-0.002775055290654545,0.11239020509797142,2.337343302
-0.01137839364905368,0.017716484308877224,0.11169994688821713,2.342324767
-0.057569136528901166,0.045384561322522415,0.11184937757239555,2.34720935
-0.08359471010925014,0.0029811831065980395,0.11140082109357653,2.352021336
-0.05533189168857516,0.02236686196431393,0.11128481739933503,2.357182351
-0.08047742553648489,-0.007001318874205044,0.11144181099378891,2.362283419
-0.06341694177418512,0.0005571836436645307,0.11159334929128283,2.367293526
-0.05386839651926114,-0.007139108859256553,0.11205743149553368,2.373196347
-0.05898439511362994,0.029059370199981713,0.1125253744049003,2.377271412
-0.06545568830442847,0.006129148789474624,0.1128040682096762,2.383519078
-0.06400739748223383,-0.005730753202111607,0.11353379615380645,2.388419182
-0.06752596300854571,0.06527541520816192,0.11394084436584306,2.393856338
-0.03609113560566336,-0.017208991784796776,0.11401576537556209,2.398514662
-0.06813209484530462,0.008964915719988222,0.11421898975220675,2.403203756
-0.02223844879157029,0.013613159300069927,0.11425307739097543,2.408664479
-0.0676722207724855,-0.025388875239816255,0.1138571186809748,2.413725669
-0.07911754542034058,0.03015949876668239,0.11232583423001338,2.41860615
-0.045798163351671486,-0.013613717670094033,0.11143506237614363,2.423713164
-0.0500425459265621,0.0032133873548505286,0.11060065156557362,2.427835514
-0.025373996365395612,0.004782670338222731,0.10907682322337159,2.433394555
-0.05888056171152901,0.008236891227009793,0.10756188536189192,2.437356534
-0.032497132722999346,0.01913105891980557,0.10661115976140763,2.442775152
-0.06485763023167877,-0.029765856046553914,0.10525528004206602,2.44727137
-0.05000000791507818,0.039640688408172045,0.10440448950032893,2.451726575
-0.08714702766286286,-0.02445320745117584,0.10374912446557054,2.456440563
-0.0748292125278544,0.007579098375024873,0.10353704328614326,2.461827656
-0.05426390128434177,0.012699168629884627,0.10338181078568706,2.466553824
-0.043921134799474675,0.00746478585983479,0.10336459547105231,2.471293641
-0.042143903468994645,0.017857311760274244,0.10410330841032524,2.476452818
-0.06399844450914756,-0.025411581734241864,0.1047458203343575,2.481893153
-0.019425376801729483,0.02604177302627041,0.10550691496917924,2.486668398
-0.05991877589204255,-0.0077344452403353,0.10660430735296773,2.49174894
-0.0721358376280411,0.0008286370917657457,0.10707397580227468,2.497175637
-0.053058149935180994,0.018196336321306857,0.10796918565750377,2.501469837
-0.05461562584648798,-0.024337336123579523,0.1085212761861879,2.506443775
-0.05707584241423377,0.028794486436608986,0.10898959759465666,2.511339788
-0.05491904533729014,-0.019354076098709892,0.10832897989823409,2.517405685
-0.04636402345636558,0.0028330542452844653,0.10741423175994275,2.521846625
-0.035049751174587314,0.025712431541303364,0.10665168494631505,2.526703444
-0.05497254983475819,0.023681261752499703,0.1052825765042689,2.531685922
-0.051157361859938535,-0.013868028137278554,0.10381677872920388,2.536303447
-0.07320276722498609,-0.013891250810245552,0.10254194719690489,2.541698011
-0.06458900065580922,-0.0022271302399180137,0.10086000233846013,2.546141241
-0.031236408534806966,-0.0005125876445877314,0.09978717160777083,2.550910989
-0.04809147915271557,-0.004604849005527299,0.09906720978874116,2.55624213
-0.034952302287836315,-0.0011019251271555779,0.09851733510915643,2.561104363
-0.04949866497861551,0.008879801868223266,0.09805750616384744,2.566344926
-0.04122032344267375,0.0068802368838390745,0.09787456672356629,2.570968445
-0.060654225280803845,0.010401449032829671,0.09792953910501694,2.575904946
-0.05034814474206808,-0.002399493173604989,0.0983512591016879,2.580885186
-0.04010746036160415,0.026586933192812134,0.09914958894296626,2.586246716
-0.06080170447621577,0.006754290921149099,0.10042347953486327,2.591306977
-0.05315641154014953,0.005458986807575483,0.10083934072096436,2.596312793
-0.09244975516595938,-0.006954245075343354,0.10128702442977135,2.601641023
-0.057424959306560004,0.026581862078891547,0.10249992908696906,2.607251538
-0.06266796314024073,0.0014756066383968926,0.1026978689403941,2.612056677
-0.05467329874221503,-0.001684152137592725,0.10240025777598015,2.617243891
-0.0280085659898109,0.0112145666499774,0.10211726548130105,2.624730175
-0.08001978542867849,-0.009105042701975208,0.10124239666457445,2.627143085
-0.06810413625956803,0.02911491574554673,0.10072690639956919,2.632232695
-0.03203134835071958,-0.04119514845734531,0.09915406890962054,2.637517394
-0.04130910449901179,-0.0060309489062573985,0.09803201752529365,2.642195464
-0.028601133017586756,0.04020597821927635,0.09672114763939813,2.647255401
-0.05354115778639921,-0.03538037155323697,0.09605684017611577,2.65218114
-0.048333449758163845,0.006468906180836479,0.09468893702305395,2.657074116
-0.011155729804230824,0.009333886509812197,0.09389525790370896,2.661910536
-0.0654016008102306,0.0014324973500763807,0.09345732419425919,2.667658787
-0.04070671076913904,0.014386705531394688,0.09262177474397856,2.671996736
-0.053214178498166724,0.0010125108082400039,0.09338423611155326,2.677147375
-0.01829960749536804,-0.023634007674074663,0.09359393599836759,2.682462854
-0.050982883185687826,-0.013498741357350384,0.09357715242472311,2.687138352
-0.02893937536300907,0.021308723580932453,0.09406989077490309,2.692021418
-0.05544702399908993,0.0258978692506448,0.09518695725049708,2.697103396
-0.050480431529481104,0.015518545413145735,0.09566468485043722,2.70243849
-0.03747427507303715,0.022799297306400096,0.09648416042909762,2.707348191
-0.0786768654105206,0.010680044861049258,0.0970077441082476,2.712948646
-0.05629466819029746,0.03229412212933801,0.09725151395349425,2.717206707
-0.0632401475211614,0.014316867928419769,0.09701428514758081,2.72188005
-0.05209491849029392,0.0019442307008515698,0.09595552806949677,2.7271349
-0.053052083213277416,0.0071246435556722556,0.09567527074634077,2.731778728
-0.06884330986244075,0.004048752936087101,0.09439009728880685,2.736865686
-0.061785928077871685,0.03157546773219757,0.0931601040513968,2.74159954
-0.066056384564716,0.00043344768095257037,0.09201945816529482,2.746480695
-0.061366246750093306,-0.016646842090214213,0.09120113668444262,2.751452431
-0.060081277298566084,-0.01210217047550951,0.09022689520906005,2.75636482
-0.03246745457038901,0.030513841212371863,0.08963501427404189,2.761400884
-0.07221615233717656,0.007389418034478925,0.08894881314173488,2.766509087
-0.0503163318814505,0.03868423319204341,0.08829747407962814,2.771700871
-0.06023529441207115,-0.013878998487634752,0.08848338204917604,2.776270842
-0.018123504025133096,0.005777794084497205,0.08841643126867758,2.781358834
-0.07979791158140914,0.027973819197379644,0.08826786210994417,2.786334362
-0.03920984146371426,0.03498965763411657,0.08910579053605289,2.791371311
-0.044833596065940146,-0.0005010957735049719,0.09002477333981823,2.797114355
-0.08700261867010277,-0.01505376704498472,0.09050661346933489,2.801869227
-0.05653354743708257,-0.014016393919434319,0.0912059304969042,2.806924359
-0.06471461806228174,-0.0018286969587073421,0.09172847576603012,2.811933342
-0.03741241669292589,-0.010500220711080317,0.09167414114563133,2.816722849
-0.06930183310467972,0.006423629034097371,0.09187672207235896,2.82251237
-0.05683595647050417,-0.003676614813847741,0.09146223400989353,2.826617673
-0.05224050317722839,-0.01846578683747573,0.09059349954846824,2.831479031
-0.08192923911864447,0.06448399421639975,0.08988718252797456,2.836461477
-0.03327216151794986,0.003872534831551073,0.08849472028442068,2.841877903
-0.06754966185313874,0.007655594928753038,0.08779214252615115,2.846648607
-0.07013147272257932,0.011650908271878568,0.08687509804063835,2.85147354
-0.08207705785791361,0.005286698926006967,0.08603641740676678,2.856555695
-0.0490523552945794,0.018996734025832053,0.08502682822487226,2.861468314
-0.06337843148299399,-0.021140548499219983,0.08469923141720123,2.866292257
-0.04873709680576093,0.010322745968020483,0.0837554438328597,2.871439662
-0.060453352878639705,-0.018042109977259142,0.08370351936876377,2.876450052
-0.07121257996268635,0.0100923091560467,0.08366713955893518,2.882355451
-0.02523936036802116,0.04943971001862121,0.0838385466775832,2.886667014
-0.02832098227474098,-0.011750489537302688,0.08428438878981961,2.891637916
-0.04012168720768577,0.0058162998161794275,0.08521030757352258,2.896491969
-0.037578152961452296,0.010318830658482159,0.08525130013700186,2.901504911
-0.052691524420160625,0.003264175465320506,0.08596245887920968,2.9066253
-0.01845967703704645,0.005578252198601749,0.08673108459551752,2.911487839
-0.04877302487908364,-0.014321307175352703,0.08706854047236716,2.916541174
-0.06359235584232571,-0.014925760504022098,0.08728347849587545,2.921442264
-0.06261860436709306,0.00330039770839734,0.086729846298303,2.92658075
-0.013344837965057622,0.027877882035515483,0.0862987090504259,2.931468265
-0.06467839338749717,-0.001488941962500213,0.08578221433179595,2.936720761
-0.04708111226570544,0.0032975051936439325,0.08460252651463324,2.941609509
-0.023756520462890604,0.00037557945034269284,0.08375476471364496,2.946390234
-0.04852940434649182,-0.021313347260600194,0.08269851327029197,2.951209586
-0.059761617442791314,-0.0007471440975883228,0.08147482081951796,2.956357801
-0.05814464401139621,0.0244285001699801,0.08055521203400319,2.961485565
-0.08487092680557684,0.022618099783245964,0.08026543643430674,2.966576102
-0.039317648065781335,-0.010618718075334025,0.07987665672560978,2.971452726
-0.08395831875463156,-0.007735214705898679,0.0793321376923139,2.976321499
-0.06498810513447113,0.02414874539047353,0.07944534952659958,2.98129411
-0.05902970400178918,-0.004414700151030527,0.07956423628004336,2.986567809
-0.053364691131989876,0.013896586138829825,0.08000871919995567,2.991358743
-0.06411820760820988,-0.014313374635478524,0.08019874518140357,2.996280461
-0.047096935011583616,0.020129538683111646,0.08082596945146141,3.001388276
-0.06948886213487683,-0.03266652758145691,0.08178867023758693,3.00636792
-0.06476361371606622,-0.004120421151548752,0.08179575649127538,3.011336115
-0.06948674646680218,0.0027795210706137,0.08259318313552089,3.01631537
-0.027198383002431506,-0.005030822923249445,0.08277496494995838,3.022591317
-0.051612127557983375,-0.0056016015201407095,0.08235592756821071,3.026239181
-0.02515402224811485,0.0019127931692883814,0.08224543814594006,3.031429093
-0.05800558076603001,0.011094494065109525,0.08150492505879343,3.036463373
-0.013070205867913479,0.0019309520007861816,0.08034114198295492,3.041484355
-0.04463078336798993,-0.01686578947591175,0.07932903588766964,3.046379659
-0.04982350831758199,0.007651402354905314,0.07847351008904067,3.052183046
-0.05243394398622048,0.007948623715650364,0.07791491948549947,3.056368598
-0.06065041545502798,-0.008181499706728058,0.07686570722021316,3.061330747
-0.06010992524899659,-0.00935038879857662,0.07652056009548208,3.066538871
-0.01430626278110017,0.003877892371580075,0.07572076592430718,3.071503677
-0.08340837707143875,-0.013927725113768835,0.0753036955502527,3.076561974
-0.04797541561300156,0.009056544528171567,0.07548395009674727,3.08145551
-0.019742649584146628,0.043489931011903946,0.07560611508349797,3.086580933
-0.025789290053340484,-0.0301951617689347,0.07548820165913973,3.091509499
-0.04847725631762863,0.03496087023218785,0.07578804207447816,3.096452078
-0.04409351675159566,0.026979044355141604,0.07642906229146265,3.101561664
-0.05622512663320729,-0.0029701231474096807,0.07702354957628564,3.106479829
-0.05655772353482163,-0.0012298210292065537,0.07733154205282704,3.111387091
-0.017785302798124257,0.009369789925675946,0.07800946776931525,3.116466283
-0.07228968775316261,-0.02662841405879456,0.07869935793325715,3.121904107
-0.08186186220462816,0.02048475097124236,0.07817133056349576,3.12679364
-0.055887815819144156,0.0242245587633335,0.07794962067986691,3.131945981
-0.030457106495447254,0.01744202654480502,0.07727784861881992,3.136907334
-0.07280394562862118,-0.007171018611527757,0.07666366117423,3.142205804
-0.04116370492176895,0.007760685608324673,0.07602827718033549,3.147123539
-0.05982404007997639,-0.02685493711887186,0.07483568692511637,3.151955569
-0.02839403639809907,0.018413720303003717,0.07391408177505004,3.156912455
-0.051676696742637536,0.011219397948430706,0.07321655083560472,3.162022244
-0.05071206370953655,0.004180920909684032,0.07211352802293496,3.166913744
-0.060227834421421496,0.008553770820197005,0.07206149083958896,3.172042916
-0.04337530981348457,-0.012100970631135133,0.07135795387148332,3.177234655
-0.07647810853630643,0.015365240066382404,0.07139095401094832,3.181981574
-0.054591213046654666,-0.027898071483334584,0.0711905315238891,3.186967888
-0.0483993478611251,0.008570151537009916,0.07137835059662961,3.19186272
-0.06754773475116493,0.014969313143597385,0.07189177587286777,3.197512969
-0.02721934042816567,-0.004991745195752212,0.07206471629443728,3.202489526
-0.03905564457716111,0.007010688167695911,0.07304559350009385,3.207414908
-0.06854853271415581,0.015008767922826401,0.07354570518298467,3.212465334
-0.039759041523059105,0.0394536905289043,0.07399744845363211,3.217300556
-0.02666647094900309,0.019025958620004235,0.07456834488109082,3.222573412
-0.0679743272391932,-0.0033500355994792743,0.07406707818824121,3.227331786
-0.047244051716149836,0.035725228562622585,0.07423342425002173,3.232291548
-0.06322069967968495,0.03129288842603373,0.07389938132729786,3.237404825
-0.04704342235757281,0.02120007175317882,0.07311935937265517,3.242279367
-0.0722939283919778,0.005378328656215816,0.07209931159879192,3.247377726
-0.0448337522530319,-0.0013218139182488917,0.0712925111635827,3.252198881
-0.035929826102187506,0.009379587838953634,0.07030504012916579,3.257601022
-0.026571056974870506,-0.02316075931792986,0.06921806654169377,3.262809509
-0.06262788370467917,0.04084463570362112,0.06884769645819296,3.267528535
-0.07539859721292894,0.019541775468296732,0.06839558835027591,3.272514433
-0.06734358188206094,0.011912673498538405,0.06835892420554043,3.277338961
-0.04234943741493285,0.037010451308645886,0.0678246887399626,3.282359781
-0.03727941281151917,-0.023743332805927594,0.06804347108536805,3.287506886
-0.05039927010602651,-0.0038189908483330457,0.06738099952133167,3.292403119
-0.05654218606325553,0.008884257486603028,0.06814776733656765,3.297350235
-0.04728165515855569,-0.004766631158619216,0.06858787058368845,3.302422422
-0.05043053129209018,-0.022049831134516338,0.06893531862199799,3.307492782
-0.05302941359587626,0.0010061177017699403,0.0691676837461459,3.312425974
-0.07578970345374283,-0.00012195770634390937,0.06970529611671457,3.3173161
-0.06230291159974112,0.02244850130850231,0.07070931409711487,3.322400836
-0.09476592256061632,0.0002448015559799212,0.07021924426212595,3.327320799
-0.07460275749998488,-0.023688717130287733,0.07016331416856844,3.332314413
-0.06741940721980019,0.011302019251091878,0.07013938515073032,3.337259606
-0.06893380211540527,0.014231214675500913,0.06960042544242803,3.342263453
-0.04344027273092375,0.0351847613079531,0.06869913350734179,3.347148914
-0.06819528460051065,0.002401679632898916,0.0675137539489566,3.352179105
-0.05803562086834267,-0.002562100454882258,0.06698633492155132,3.357112629
-0.0695201792017972,-0.031029563475995524,0.06659397469603008,3.362026558
-0.05619370222823493,-0.010061686492587261,0.06597789318191875,3.36690938
-0.05308355707971797,-0.030564484339819044,0.06482108607235045,3.372087325
-0.06346846120093239,0.012990494055314815,0.06431982611204262,3.376965196
-0.06455163678683004,-0.01568386858855371,0.06441199388082589,3.38191152
-0.05492006187577059,0.008580663827706368,0.06405276346906191,3.387173527
-0.014384632063706382,0.04369458305935513,0.06415914075685286,3.3926885
-0.05328931403163465,-0.005596758435486276,0.06442488196502766,3.397145754
-0.06097542930046595,-0.029843062604958268,0.06483928765982777,3.401987306
-0.0426625787064716,0.0073278117012839155,0.06512843714749626,3.406986061
-0.065059855988974,0.03463640693886319,0.06574087113959871,3.411990934
-0.05279116262581361,0.008786937243492172,0.06584402767180524,3.417678424
-0.05731713003887963,0.01812040235615678,0.0668204039992271,3.423101179
-0.051384205091778865,0.024217533084943142,0.06694800794000774,3.428076119
-0.056282751342210724,0.025430190914227855,0.06691749089347447,3.432508654
-0.0498976763050086,0.05308128208638613,0.06684229213887914,3.437630706
-0.043490856770484004,-0.004084602874501034,0.06615246135228518,3.4424827
-0.04984166558600277,-0.013426826535250735,0.06543712134984729,3.448083407
-0.05555520204249779,0.014830527068675579,0.06463061209879789,3.453124403
-0.04206299161108809,0.031068435125139626,0.06369683500422145,3.458119747
-0.052145607274045776,-0.0003437459001372058,0.0630492044531121,3.462942899
-0.06306868933891836,-0.00024652195511095515,0.06289134979391825,3.468434888
-0.06240297219387499,0.007689192051240564,0.06172393830267539,3.473458452
-0.06653402619953108,0.014310467089113352,0.06144240505923405,3.478424286
-0.05230736323398104,0.007838633725320546,0.06093172013058176,3.483435783
-0.047610168245864455,0.023840186911141297,0.06060472407405138,3.48838879
-0.04056156394986045,-0.0064425701033045905,0.060827509995778684,3.493287981
-0.044152971723215924,0.00923533418541174,0.061077460509121564,3.498676119
-0.011967799000895701,0.0020999721777223406,0.06111419964969791,3.503265358
-0.08039471626703958,-0.002124740666512337,0.06156446524057609,3.508134912
-0.03523689501002493,0.04182282973891633,0.06190576392500234,3.513095013
-0.06654070163482727,-0.003931140497864831,0.062236601444026006,3.518197211
-0.0279129938831233,0.013955127969915847,0.06272455310384019,3.523104266
-0.05011380154496967,-0.006410568961485008,0.06303119304155674,3.528317597
-0.0667213446576069,-0.029817101262301103,0.06320959052557744,3.533553874
-0.05008246420163352,-0.00013144019916909834,0.06313066026083987,3.538517046
-0.05217880586937389,0.009095130425974436,0.0627536292134122,3.543833464
-0.054717584696289914,0.006681655630475393,0.06249700673693798,3.549090565
-0.07238213299396828,0.004347404320625176,0.06200836649309768,3.554028359
-0.04884159594079944,0.013222243651130356,0.06107869418657043,3.55886632
-0.06319700700069104,0.005762325325189185,0.060234637167814645,3.564666373
-0.05253725870617466,-0.028586291840674478,0.05953993655980054,3.569753912
-0.1046498473308891,0.004168866219386066,0.05811384740626554,3.575002679
-0.0750856593758409,0.004655652343996891,0.05829853302013698,3.579718326
-0.04619744845181106,0.015398548731169788,0.05791699658816376,3.584581208
-0.062040227806447065,0.021517479155929227,0.05773650048926373,3.590525814
-0.07994593722538627,0.01655854080156869,0.05748947698764966,3.595203984
-0.06363046760791796,0.021421021338096445,0.05774242089576639,3.601069364
-0.05260615397959555,-0.018787166489977046,0.05794532478399642,3.6056056
-0.0613115025787779,0.012320113659932684,0.057990357629324814,3.610538688
-0.06437466062460453,-0.00375771723549416,0.05849247173550447,3.615515444
-0.05256568365426447,0.014117992335460579,0.05919540190292109,3.620280226
-0.03189239116449399,0.00476975534192964,0.05959856288886351,3.627086693
-0.09980475592610463,5.57903354575605e-05,0.05924884788864102,3.629973782
-0.06583213413399827,0.03900785178167542,0.059889549782239156,3.635230147
-0.044602289805276765,0.0009426401372371396,0.059702583193039546,3.640096523
-0.060986019546973816,-0.010001333495929791,0.05983581654241068,3.644919552
-0.06705024319200202,-0.01701627277243366,0.05929257990129795,3.650100737
-0.06346726990620721,-0.021261176843754188,0.05856541228231244,3.654918291
-0.050223160083290246,0.005942378064371895,0.05794114246696305,3.659876314
-0.06269566983971582,-0.01556237486709924,0.05755585640283807,3.664981305
-0.06474599903635797,0.022869873397720394,0.05673595082758943,3.669898445
-0.03900834954428906,0.0023509854755677326,0.05620064485654068,3.675306846
-0.028739832421925803,-0.022526363022751288,0.055074098936514645,3.680275654
-0.04364982311079017,-0.0007486679582741178,0.05476621947427858,3.684624986
-0.04862119349872583,-0.004147998016557275,0.05473261053288642,3.689914317
-0.0642969736032499,0.007455786644340103,0.05442697546549318,3.694412867
-0.07184040366429097,0.0007754756946462323,0.05467983724124602,3.699257642
-0.06724868886122431,0.017227557136378704,0.055041616719453644,3.704358767
-0.08415806570366098,-0.024189895027279168,0.055358896305207496,3.709420255
-0.05735800848418605,-0.013520269629541483,0.05516023223083407,3.714307866
-0.03727311957353205,0.018112632960481996,0.05576306882154323,3.719245656
-0.03530220362589217,0.018442349049280764,0.056218085559857266,3.724687468
-0.04587323889525612,0.001966785136034194,0.056554068564026345,3.730067638
-0.05113515409932661,-0.023384314236448208,0.05670650330070515,3.735416865
-0.06863689162899422,-0.037291827986871896,0.05667953044598488,3.740568232
-0.023347558419609338,0.005586091976752803,0.05658729128975603,3.745939901
-0.05034429577286186,0.005677621834846415,0.05666430012139056,3.750744754
-0.06843996380087577,0.031870371633789994,0.05539779553444958,3.756241934
-0.10155368146613791,-0.014459977482457077,0.05534686292934522,3.760818525
-0.09074656137091325,0.004773485017163373,0.054873530601683485,3.766557419
-0.064052305713479,0.005999283302463456,0.05438314046496269,3.771050235
-0.05003953219449852,-0.00940083426710052,0.053440691546065754,3.776311245
-0.062123293480520224,0.00781304191145767,0.05270501957630402,3.781232402
-0.06840790255791196,-0.03625696486126216,0.05216503219594095,3.78613051
-0.06800979343921744,-0.044167379895978735,0.051504687597206965,3.791035272
-0.062423466115898774,0.012367326089407028,0.0519969770624591,3.796372941
-0.039995500170095837,-0.005486570857429047,0.05194918351296783,3.801733723
-0.0598146364667225,-0.009441939352897189,0.05164985881406647,3.806334475
-0.05543568505775903,-9.360917183117747e-05,0.051980935963519125,3.81146081
-0.05929196176402247,-0.030155643494301276,0.05206240764688633,3.816351827
-0.04474842785818528,9.54322456072701e-05,0.051893540718449864,3.82146423
-0.04401754222925874,-0.0013971233297197117,0.05178968450754087,3.827093771
-0.06681215406048369,-0.015196735211290772,0.052057958725101425,3.831021083
-0.05635532661704642,0.0015471045058798702,0.05172787272541309,3.836106476
-0.02169248499905825,0.00843702059017218,0.05179843289040313,3.840772668
-0.039149118947551145,-0.005271637007596263,0.05171571643725952,3.845623838
-0.04666811885727107,0.006856724965950956,0.051532559961774485,3.851006617
-0.0470501912166645,0.01351874290769042,0.05205119784727143,3.855990677
-0.04535931876298693,-0.03791204503106378,0.051799233264598156,3.861188193
-0.05866283881253061,-0.007250490467495119,0.05176078667462809,3.866156385
-0.05352013344891077,0.01518063019162216,0.0516040301112214,3.871037347
-0.04774645983325082,-0.01216002869026923,0.05167454283622691,3.876203828
-0.06443452834308849,-0.014949276046190306,0.05205775935690458,3.881134243
-0.027442147043859277,-0.009570703637482428,0.05172654750024086,3.886232076
-0.033760206635070796,0.01636968562042482,0.052048701711361695,3.891186052
-0.05317173589773846,-0.010427077701899722,0.05233928774711887,3.896062283
-0.0529936037964602,-0.013887236801607555,0.05221001571885837,3.901913601
6.041975389456569,0.0023789925634029076,0.05539094203246069,3.907701767
1.4156128657322211,-0.028628461270884066,0.08398116280394699,3.911957463
-0.16962230014288524,0.012663657823158129,0.12542052438611923,3.916861629
0.06303182727379222,0.05741119077202754,0.17662633193297161,3.9219841
-0.21417422921983134,0.01907073924148271,0.23374478168906254,3.926932422
-0.03775895489604226,0.040565478728315146,0.29203169945176427,3.932968102
-0.03976031548187861,0.019775870929922997,0.3483748271238091,3.937618632
6.656995657907861,-0.12715170711788373,0.3973674438199735,3.942443344
0.06785516086219015,0.018888817944493513,0.43903685130713044,3.947484068
-0.13518774673782663,0.053934608816147096,0.4695682758802949,3.952604482
-0.05960998136754424,0.07333266689610708,0.4885280076767451,3.957318735
-0.07352916052794375,0.04832204781224726,0.49566920963096195,3.962156799
-0.02474679053801612,0.03404872383558958,0.49102103309359213,3.967176758
-0.05716915049334445,0.025274665035785984,0.47644105877241055,3.97227482
6.950029524863303,0.09044206498505572,0.45323195344477474,3.977439811
-0.18641550159901232,0.06667116316605025,0.42414568929778357,3.982128194
-0.07554728320277766,0.05620435225155331,0.39110911248543995,3.987280954
-0.008681019665607977,0.053437562920690435,0.35633193899593824,3.992166012
-0.0051005285143450665,0.03742128411349804,0.32324943705718584,3.997046506
-0.05116764808620164,0.024378900260961435,0.2924324873794099,4.001868733
-0.031298550879311646,0.04889382476495437,0.266913544784608,4.006967831
6.903155622388583,0.04840179646593398,0.24711078320950258,4.012509843
-0.15957130443042927,0.0350581239953555,0.23404092944591381,4.017293999
-0.12327899640678347,0.05143633553923118,0.22857537870008768,4.022372129
-0.06583134555873713,0.060009546466125246,0.22913796972868897,4.028978436
-0.04809289136167985,0.07068703495226905,0.2366407239493558,4.032383053
-0.06520437102168339,0.02447125012351531,0.24884942191392864,4.037351601
-0.050646667339368866,0.061367988121423786,0.26526731103541545,4.042366465
6.895077732284192,0.05029729514648467,0.28410878102809983,4.047306419
-0.16386743222416222,0.0738020503292222,0.30484686051401216,4.052190628
-0.12350499178168028,0.09414174420542719,0.32534227767831647,4.057105357
-0.03980634455058685,0.06699161350724964,0.34390296668367093,4.062348173
-0.05400257516738606,0.03715250541513808,0.3597673842025033,4.06753653
-0.03798393133860816,0.05999509695957457,0.37254694519787207,4.07263844
5.651590947822323,0.060905169191350784,0.3810132706587421,4.078237678
1.2030412722528991,0.10213301577953152,0.3858651005952314,4.082410591
-0.10450929239815424,0.08608107409598689,0.38607115658632907,4.087367895
-0.0867507010864084,0.08647061384679999,0.38276469630052734,4.09220137
-0.045781358964665786,0.07927428370915271,0.3760097675672002,4.097917244
-0.02021234579140439,0.11532902379201078,0.3669538460118654,4.102576608
-0.02592845416991057,0.0994069943040115,0.3557471687671381,4.107594654
6.766264229023697,0.0780387715391198,0.3437951942391488,4.112863857
0.07582925970098879,0.09486171329653828,0.33173147404546244,4.117936108
-0.12541895839687117,0.07250412633235132,0.32046744466528687,4.122713043
-0.05837565726100213,0.10299181110581672,0.3103694503736947,4.127542368
-0.031127146452625085,0.06744463576588242,0.3024460207231834,4.132402808
-0.012676928349026333,0.09449785096508595,0.2969396152111761,4.137355849
-0.04148707758279138,0.05608378958648742,0.2933163745478228,4.142325431
6.917444981482348,0.0821951315199405,0.2924759476671816,4.147269249
-0.1375512814862249,0.08270407155848518,0.29418363964290317,4.152119375
-0.09601102550137718,0.06316876762594634,0.29772334763402875,4.157112435
-0.0686721348977068,0.12037624092137314,0.3025402555689124,4.162351648
-0.011432305657374724,0.09586930366319042,0.30898308948512077,4.167683981
-0.056122758435373815,0.08511281995868081,0.315652066240893,4.172705967
-0.06986802527695876,0.10080405409871838,0.3231087832710207,4.177270638
6.961078831699723,0.0986118744788755,0.3300626630007947,4.182542069
-0.1560740946957969,0.10786906013211477,0.3358347657090586,4.189358394
-0.05793965398464036,0.1120639680693383,0.3411662966148376,4.19264326
-0.03610656636980425,0.11719372037497823,0.3451038292295083,4.198466014
-0.0065499302816490156,0.11388670289686868,0.3467963984528558,4.20354044
-0.02211150010806778,0.09736981333264055,0.3482531355959626,4.20844438
-0.028854357503646257,0.07310840661705592,0.34767392433532535,4.213624401
6.924823365096749,0.08669199806975589,0.3455820742174407,4.218923559
-0.1500126818978068,0.10971188515262184,0.3431450906421858,4.223962608
-0.06171449108497058,0.10598187167487683,0.33989107000700863,4.230036654
-0.010959096619962166,0.12976007136947254,0.33538996047350994,4.234116008
0.013927630411461316,0.11600265816078957,0.33102222014113675,4.238985681
0.02106865338876893,0.10871756197990909,0.3269079335045184,4.24411664
5.652408894746075,0.1084733589866561,0.32350001511972115,4.249792669
1.242290670599307,0.10566851933173901,0.32006971720571675,4.254029921
-0.07721015414071047,0.10555814527029367,0.3172805073941131,4.259988235
-0.01733983972624971,0.1351018220494088,0.31605230174992455,4.26468609
-0.04112597489649157,0.1279582070364787,0.314990928631323,4.269601485
-0.058127033869829044,0.11387171955128825,0.3149760756043215,4.275031845
-0.03365236993522597,0.11443023855367701,0.3158808556580202,4.280369109
6.79278057466908,0.15391748650511766,0.3175781167580948,4.28531444
0.08469585796033413,0.11583203839641532,0.31969010410535065,4.290240855
-0.0853473973059039,0.16220925713138792,0.3215913662952749,4.295230517
-0.05387216730982071,0.12892339172949102,0.3245940682342291,4.300135933
0.01863719963793058,0.14689554779761127,0.32739976751104927,4.304749844
-0.004624821078024333,0.13444189977659557,0.329570412493129,4.310082738
0.008969481725115136,0.164243285939707,0.3311704697594718,4.314918515
8.474871989938094,0.1285762329376691,0.3325859469510479,4.319948732
0.06490542387198671,0.19352979458163955,0.3338019376748002,4.324607918
-0.0650260879798842,0.18009940403772356,0.3346577251100849,4.330344882
-0.0069142579806391585,0.16857046658130417,0.33477016466246196,4.335356695
0.01143653996507117,0.15787428246317636,0.33390258135478035,4.340284607
0.03044077196350256,0.15741333248477724,0.33384690684397794,4.345042651
-0.00461301608263491,0.16411819821582557,0.3323216284922187,4.350083976
6.981325121499774,0.1468026513677343,0.3309557886718497,4.35492517
-0.09548707725399934,0.16527686219086915,0.32948728985075776,4.359787195
-0.01799077975840343,0.18626627091422374,0.32772891600317217,4.364866682
0.021260794726786353,0.16626386012103503,0.326679882142011,4.369609291
-0.00560861518354948,0.1723864501570266,0.3251296769876914,4.374901619
0.009432437483079835,0.18611712059268962,0.32387800990702287,4.380021756
0.02376976056212229,0.15740834112635713,0.3239250190965604,4.384894184
6.92860349700601,0.1409582790797618,0.32306847193975863,4.389645579
-0.10654914419179318,0.17791568391792761,0.3233519182678239,4.394449266
-0.01263951228701202,0.18772629410146474,0.3230037004050372,4.399503084
0.01778847918670872,0.18805485109948894,0.3237990268479069,4.404547798
0.008388731665447475,0.15353414566027626,0.3243899100762659,4.40937847
0.007830966078134414,0.1991061990514411,0.32506595345288514,4.414348552
5.669015735975982,0.17336417394715897,0.3261083277693281,4.419792537
1.2313953844337056,0.16068921641379064,0.32702835952837045,4.423954151
-0.06153811581149965,0.17850262218420257,0.3275171532314184,4.430574636
0.01127901695698045,0.16825274266220674,0.32840752865254197,4.433801847
0.01721014248945075,0.17457002055490006,0.32915623690895834,4.438704572
0.01695315856256912,0.18104022712844844,0.32956503611765386,4.443903829
0.021014663562646203,0.18275480807071987,0.329779201170156,4.449349122
6.818274164992928,0.18416285714733496,0.329783071567024,4.453750427
0.16568741591668384,0.1962730353058448,0.33019704381653725,4.459625319
-0.0211836224443957,0.1991484379383408,0.32976690640866474,4.464418942
0.025149683041897256,0.21314477271264004,0.3292991191495316,4.470261435
0.06070077481638736,0.18561138438274463,0.32902117282555243,4.475058489
-0.013169822476599938,0.19791410928295547,0.32810092525467877,4.480014611
0.03469386315400749,0.17703497576807026,0.328181339113355,4.484856663
7.025237486787816,0.19302998270892352,0.3274218844389374,4.490050769
-0.050834679822996956,0.2061606760175865,0.32674910073816543,4.495431994
-0.028410240315935,0.2141334244525109,0.32653119988137685,4.500025154
0.03334853958180971,0.21885431592210608,0.32625365015311275,4.504919377
0.04322303797251031,0.22344562759730593,0.3257900785108858,4.510240612
0.07675443020826178,0.2263985734823162,0.32605671046385265,4.515019219
0.03543702810721356,0.23072178396884352,0.32601476421705017,4.520830201
7.056221175608941,0.1774722350718593,0.3256073330626595,4.526070591
-0.06177127374529577,0.217111561929075,0.32617176994742003,4.530461399
0.028470858791095958,0.23383279828059023,0.3264234114856048,4.53589402
0.042756398578654375,0.20904339202893849,0.32646140669048196,4.541156609
0.05954782149248717,0.2074082056827254,0.3268163418881403,4.545315266
0.03270635005533527,0.19685879620098526,0.3274205928077299,4.550858808
0.04593477334843453,0.22714903399180303,0.32763383819943165,4.558292226
6.992070347468213,0.2179016074570029,0.32801750634871635,4.561812928
-0.039773858953436055,0.24230561273482076,0.32772648406067123,4.566078189
0.032958124819479497,0.25429314221046545,0.32789541262201016,4.571045305
0.08354609496963317,0.23387023638431675,0.32801399233828915,4.575750843
0.11446136356257787,0.2226663639560369,0.3278870095146259,4.580879077
0.11680812441211337,0.22039222562298624,0.32808005869533546,4.58634755
5.788961882023731,0.21820195297970651,0.32809411886439716,4.591885447
1.3449408514013337,0.24593760160567257,0.32799224704270846,4.596457783
0.02636498931789414,0.23572295282452543,0.3277000380429687,4.601185402
0.059814750617030066,0.20984969186946914,0.3276100194890515,4.606144129
0.1122106109280967,0.23425748898446078,0.3273620595226778,4.611423265
0.13103292308013903,0.2537908634747709,0.32725228333020323,4.617344282
0.10479850016706092,0.2529362738517078,0.3271473789913638,4.622339663
-6.66697534422418,0.2665957576121227,0.32706362993508714,4.627183897
0.025787749469741803,0.21886753698773231,0.32679992110490125,4.632312299
0.17040227499775823,0.22051065341713955,0.3271586277818596,4.637436533
0.08295667983217937,0.22061149035849223,0.3267046934360699,4.642125835
0.09746795138280676,0.2231514844814981,0.3267696097374431,4.647158611
0.14768084221850342,0.22461056724006365,0.3270435996922986,4.65199069
0.09864013688194989,0.21662182536408278,0.3270913398089221,4.657117213
-6.8767858103922865,0.21409118602817973,0.32691637082183195,4.662140412
0.23471287208144315,0.2102211346502439,0.3275472266854383,4.6670208
0.16756242283669479,0.20426170257300244,0.3274720579001252,4.67210426
0.12090845092725193,0.20817486453775397,0.3276698195891618,4.676869591
0.11652175621862275,0.19584689417241918,0.3273875657775997,4.681778712
0.13620315128401428,0.2240158630938092,0.32760013443113756,4.68765102
0.1265963004737928,0.2202025438417018,0.32740977684952927,4.692292176
-6.870303834039939,0.23050030260214666,0.32737598892352754,4.697018864
0.239128558964784,0.22105359832656724,0.32793201662858845,4.702258932
0.17488291731939695,0.2182309475634414,0.3275705377305418,4.707217345
0.13924952821410794,0.17999344003880735,0.32774827148210967,4.712076239
0.1350620307593714,0.18201653560839778,0.3275477166705923,4.71724652
0.10307868763269785,0.19270108307147407,0.3276140790395922,4.721976559
0.16258742461948417,0.20274571055567994,0.32730626882199904,4.726726468
-6.806739916838713,0.2032688644882069,0.3273662190562434,4.731878471
0.22803980043704106,0.18700100427832062,0.3275832963692106,4.736551937
0.16812541829940356,0.21818150510274215,0.3274490659874091,4.74163999
0.11115328873185726,0.19560065958722186,0.3270611206234715,4.746682027
0.15658555676583827,0.18570256493550175,0.3272320100932617,4.751269082
0.14019703004280118,0.1698710910952797,0.32741336416042316,4.756376945
-5.548388315740743,0.21009123495532586,0.3272833687172124,4.761817179
-1.0896006754785077,0.15169764499364738,0.3270693884326218,4.765911455
0.24863166975504794,0.1742098256209549,0.3269410151835163,4.770752863
0.17960908949519086,0.20795461228157242,0.32760522148600735,4.775786701
0.14532045877084498,0.18228068033027572,0.32763273571052315,4.781199936
0.14851107271251618,0.20728321509107567,0.32779835738942603,4.785593779
0.15364534479663366,0.182389139306515,0.32743380158185276,4.790634769
-6.660750576662708,0.2012315371706426,0.32745000159143384,4.795485609
0.028305929548835637,0.13211347697171455,0.327426013967339,4.800921805
0.18976286283783217,0.15103748169958428,0.32759277479210575,4.805723804
0.1830675127117921,0.14256436014529653,0.32755478112793207,4.810670115
0.12935250747273233,0.16609692062853548,0.3272974671601008,4.815389493
0.10690742418822519,0.1694798388225096,0.32772052224578463,4.82045172
0.18379511225366263,0.14825035168384046,0.32765933601990316,4.82540074
-6.8246089806305905,0.1756640043291986,0.3277778717119582,4.832656965
0.26769549226677397,0.13348087583469057,0.32741134234543473,4.835425176
0.1917296237168766,0.1681527042894778,0.32736565346589347,4.840791692
0.16294271763748192,0.1432776197396613,0.32737500644158,4.845777276
0.18431811549307245,0.14761069024997536,0.32723787964325735,4.850616144
0.10294327763920465,0.1644905123430512,0.3275800166766537,4.855664105
0.11245107819700756,0.14706008277991464,0.3276350554202825,4.860762815
-6.787581140222268,0.1312250069551566,0.3276308929688387,4.865879278
0.29015627887656414,0.12131649605786601,0.32753924047777166,4.870731426
0.1881072806150504,0.14842595845497047,0.32762125699585853,4.875848739
0.17274609411875982,0.16059022919037758,0.32760505704417126,4.880700473
0.15107908809212942,0.15119957931696143,0.3273042452635573,4.885569339
0.12610473585137724,0.12733891097396263,0.32745019418001686,4.890730139
0.12185002884790384,0.14141182137650243,0.32741736540712696,4.895487799
-6.821236785370478,0.17135608860367244,0.3274896165569417,4.900959104
0.2463393216602367,0.15178600433036218,0.3275233320563892,4.905674508
0.11973848213359362,0.16638135334189122,0.32739391573368526,4.910663257
0.1205945633741225,0.17857283098683335,0.32747490654985456,4.915451959
0.14550184948772454,0.14751357555816186,0.3277480871969691,4.921078876
0.08165497429961444,0.15638694580571308,0.32693970899321845,4.925690769
-5.55492214787749,0.15500054554481868,0.32759047137127323,4.931646599
-1.0629511827366254,0.12347915355470845,0.32777956788803253,4.935745159
0.23321806314652735,0.1600370216434659,0.32731878801502257,4.940634006
0.15370398243461905,0.12276296381631029,0.32758849748606117,4.94566898
0.14067333506239113,0.1625970804923783,0.32743561114598096,4.950556717
0.09911902356474493,0.16149942097726827,0.32713920969479005,4.955576962
0.10412207252917707,0.12202027034204391,0.3275870137078809,4.960573883
-6.656086067511537,0.17572776022058223,0.32781709851195123,4.965879727
0.07198980481822094,0.12104626925509535,0.3273801156086753,4.970903998
0.20718558403983955,0.14598985111041443,0.32737659095122906,4.975611507
0.12105023182284418,0.14317728080693956,0.32772120450785547,4.98041498
0.10416159671422243,0.1532643936506264,0.32753597195146694,4.985345292
0.09710269386328793,0.12470192887637538,0.3275579489838144,4.990398646
0.07005115278633661,0.15041686829093937,0.327652023190497,4.995380374
-6.894814392708555,0.1873429459771248,0.3272708402719302,5.000614875
0.27916675435702865,0.1387790634256105,0.3279122155059617,5.005200191
0.17536371937478568,0.0857421558242672,0.32735557520266856,5.010241655
0.11780285752600762,0.12530120831770625,0.32753878394408276,5.015287786
0.08819771218939931,0.1666445606012005,0.3272938234019163,5.020339062
0.07440953253357385,0.1339170122297698,0.3272301366096705,5.025267027
0.10867209426874312,0.12443104273214427,0.32709497372938157,5.030266876
-6.901050808558684,0.19791296571830186,0.3271931756518964,5.035643561
0.23717463182070977,0.19048248197598888,0.32746553550167784,5.040656874
0.13227106179946976,0.09302139148012649,0.32731767038761,5.04534563
0.12181693824632818,0.09946010098410779,0.327299049177942,5.050538779
0.10942917407614816,0.09217716296121772,0.32718327245910694,5.055534188
0.11886099397293055,0.12502539943356394,0.3275854660588297,5.060522108
0.08923731533903392,0.07202355435633886,0.32733495700830517,5.067247746
-6.979503999439281,0.2743146887700693,0.327358735241452,5.070342517
0.14863330407056802,0.16058763073727006,0.3277577139919785,5.075488961
0.09885245767514925,0.04606416417122676,0.32866187125053986,5.080735332
-0.03780514309004795,0.2996115799637298,0.3300510226146268,5.085653965
-0.018603345435198263,0.22837491276494967,0.33036740572015294,5.09081038
0.027912996043409286,0.17523601900852437,0.331249947454435,5.09555594
-5.609351081336883,0.13332440140744586,0.3318488239876272,5.102059963
-1.2420942361902985,-0.025879517535385355,0.33145967357729833,5.105636657
0.24595056731236026,0.08472196054149098,0.3312643661547233,5.110421343
0.12438757502491163,0.09364323171352303,0.330928858741006,5.115738954
0.07756900690494536,0.05794694820087823,0.33026585488284543,5.120547034
0.05092066860217512,0.06298694818505829,0.32943073202172474,5.125575184
0.10553593226925961,0.0367037449890134,0.32863492121958476,5.130735279
-6.637952657797056,0.09262740806431655,0.32748888051125213,5.135577964
-0.04601866325492332,-0.04223104064588926,0.3264955007566384,5.141026147
0.06799702031428925,0.0033818840958265966,0.3243204257416832,5.146067522
0.10458476119731702,0.03619548158147798,0.32394353382029917,5.150928881
0.08558539251084907,0.056374470102059406,0.3226608826170826,5.155922052
0.09614718721426528,0.04292148106351051,0.3226702244245103,5.16100176
0.07446850195266788,0.07421562478931977,0.32257634699109033,5.165939097
-6.9394950729122025,0.05664855937433308,0.322703378383935,5.170829357
0.17521446339828764,0.05424012832586349,0.32352674641315365,5.176323392
0.13398319078615215,0.07844871759441047,0.323937124803719,5.181201816
0.06818646384850781,0.1054613370100555,0.3248240808992375,5.186072592
0.0580417788048531,0.05634276866055868,0.3257616391777358,5.191457487
0.056239443290623886,0.08277531532025836,0.32707387966443047,5.196335155
0.10342141556765214,0.08038915657521005,0.32780936212487904,5.201208806
-6.893044950044318,0.07216184223545791,0.32879252782586904,5.20617851
0.1911470167034461,0.05774091617148732,0.32922573681502,5.211590315
0.10795211309550377,0.06340521502803942,0.33009358091649865,5.216289151
0.040745916719973754,0.05634007221703753,0.3300683503715127,5.221205492
0.0518599920504721,0.061380709233940095,0.3305373361216181,5.226276123
0.036354745597554194,0.06295726701476019,0.33028818393809184,5.233138761
0.043303055888768927,0.04811318543929911,0.3297694407373595,5.236313461
-6.935452706596858,0.051143666368018634,0.32960739788034477,5.241430249
0.15064311643010408,0.06391322595808756,0.3288369682140441,5.250936602
0.05396709088094011,0.03663804537565055,0.32881632063743216,5.256307874
0.020962496755027937,0.02713388630308726,0.32800357515810197,5.261014724
0.028615377731360636,0.051795470637422306,0.327503769670944,5.265912988
0.022952200452062935,0.07188319869379217,0.3271006161152066,5.270919544
-5.581995665748945,0.06554623914468326,0.3263617055220104,5.277213895
-1.1940802765497884,0.03930582447772201,0.3255221393034622,5.280995079
0.1125990659151834,0.03409465833315314,0.32490214634117337,5.286255587
0.027268459423261712,0.045621349647649294,0.3238242301441461,5.291205465
0.036378904750164524,0.03216971987531536,0.32321209941196116,5.296055339
0.012315648019806799,0.07306232033455756,0.32216384393907643,5.30097977
0.023535681317317057,0.024277523966085252,0.32150108859624354,5.305941224
-3.244524053818106,0.06126700136877282,0.314613816463519,5.311045108
-0.028455702756428183,0.0475875215871132,0.2892597235725738,5.316073823
0.054924272165521835,0.03887609033036051,0.25485946808076004,5.32119715
0.04516726161136016,0.04856384416536279,0.21259134849659905,5.326143478
0.03408967193701925,0.03322960125220766,0.1673040113364029,5.331098572
0.01226632408153592,0.027917301997343102,0.12093979048367565,5.337547077
0.025687073821215697,0.03623739898744163,0.07736703825767431,5.341506831
-3.3935481508800356,0.023503382114222607,0.02912195087490043,5.346381363
0.08572526916370149,0.029057835164248126,-0.02881325667701904,5.351479746
0.025859890970981902,0.06874130200239098,-0.08736290902479406,5.356419092
0.008891798917621534,0.05049496604148377,-0.14273041294160532,5.3612302
-0.035525648370064514,0.047661125292013856,-0.19214463901047885,5.366152024
0.004237315918792891,0.0447895670409842,-0.2323386257286068,5.371152981
-0.015629911481743194,0.044253751988093455,-0.2616267427604755,5.376322151
-1.1576529741026382,0.05960969789440962,-0.2836974406354704,5.381078063
-0.017408745162241734,0.037115352421686246,-0.29792271215417304,5.386415748
-0.05619873158229792,0.03470398766941265,-0.3032460186788013,5.391333073
-0.04104656284530737,0.027607495476936333,-0.300332422832089,5.39620655
-0.04060010317105242,0.06258664703454797,-0.2896730962208985,5.401203471
-0.023321899025454576,0.036045821604452466,-0.27329764114133603,5.406185984
-0.06666678184739187,0.027397346379461528,-0.25170401329472847,5.411329857
-0.14227769685500263,0.07442548680440796,-0.2274887202317544,5.416184777
-0.05817558133483191,0.03660608569083,-0.2027023290146396,5.421753344
-0.061135549968142404,0.023034011189157485,-0.1781046055817634,5.426153455
-0.0918397580253002,0.03983646897939425,-0.1563297266023322,5.431273578
-0.06285907449336399,0.044584718959607035,-0.13754622971140515,5.437547915
-0.06401552226864911,0.031940460376134974,-0.12326387568890908,5.441084925
-0.07727249358642276,0.044185343731640514,-0.1135741517674197,5.447264325
-0.09256564850602611,0.028413767242125583,-0.10908210663654692,5.451397472
-0.06348044947914697,0.06318802757634479,-0.10982510372032678,5.456197265
-0.07722072438074241,0.05270758658398098,-0.11507042390494591,5.461090498
-0.06522480977903419,0.020839741343278997,-0.12380409186149685,5.466249699
-0.05081755260286923,0.04218341205562872,-0.13561795672058147,5.471147162
-0.09737813553494597,0.04447520047148399,-0.14927229965420216,5.476050547
-0.05488502651395384,0.047960874687222696,-0.16388331999918135,5.480912151
-0.10103232135611531,0.030524890752958465,-0.17887485597934463,5.486011315
-0.07554594274429047,0.05383665198219773,-0.19224983929732037,5.490888036
-0.09054839747118099,0.025935817839617466,-0.2035616844590906,5.495882269
-0.09115155742549172,0.04298876304169044,-0.21334784464480838,5.500915131
-0.09139966313466136,0.05604853813416577,-0.2196022641663773,5.505956801
-0.08527043120134807,0.01598900754043979,-0.22298956876988002,5.510946073
-0.10945646743129252,0.007541816766048849,-0.22291791764045643,5.516313257
-0.1219991310681023,0.020895069765528303,-0.219272608470863,5.521334984
-0.14081856493499076,0.007423983694140497,-0.2129276913600989,5.52631202
-0.12008121136617632,0.03734554625149347,-0.20442272485395577,5.53135825
-0.12591876231039345,0.04675556863873116,-0.19443477898164113,5.53669212
-0.12047966486415626,0.02983567123767394,-0.18371072866319657,5.541242796
-0.14316044256237054,0.04427390178988989,-0.17321003864952367,5.54622224
-0.10704447264839807,0.028140562776387816,-0.1633381770785201,5.551240906
-0.12312221701426465,0.022884182677617947,-0.1548144864811699,5.556047723
-0.14625901966839516,0.017577411890404383,-0.14755521051117879,5.561568911
-0.13437761416216515,0.013037372253453465,-0.14279125307013263,5.566920308
-0.15488211308911468,0.038439249442072415,-0.14041359802539516,5.571587222
-0.12250612228970509,0.015199058825978155,-0.1398287049635878,5.576944064
-0.15561539154480877,0.02219034724138661,-0.14130183092506104,5.581628137
-0.1527810007402042,0.03413503241902079,-0.14508489336080976,5.58691255
-0.15382422678046598,0.04385536115963955,-0.1495157823478516,5.591978481
-0.16743319022804978,0.044630021893102625,-0.15511263957903887,5.597342348
-0.13688563597332434,0.024094321532688333,-0.16140927873750707,5.602288486
-0.14091952296932694,0.029123379605922754,-0.16804764906073125,5.607569071
-0.13721404613650046,0.04802451246859518,-0.1739097197885116,5.612496036
-0.15217232006126688,0.04504214102001304,-0.17910843238603574,5.618098912
-0.15109742162213416,0.0376179511781454,-0.18273780925113087,5.62338475
-0.12723414768860242,0.043229645038522425,-0.1845660583427371,5.629327372
-0.1536693128012928,0.06084349979987953,-0.18457748590736806,5.633419692
-0.14018219941796223,0.051517836049006005,-0.1836744246945568,5.641141828
-0.2059171958981426,0.04559958015766502,-0.18068420672738933,5.643713441
-0.1758384957212621,0.009355075816720647,-0.17726702363405758,5.649494019
-0.18785507876337298,0.04207419202521494,-0.1726302426999223,5.654036725
-0.17976786922837543,0.0066016111961737095,-0.16831073100691124,5.65925061
-0.18980786399280306,0.033647570813809397,-0.16324054342543856,5.664068935
-0.20183762306036268,0.03554923259377698,-0.15875935405172004,5.669097956
-0.1649336656669865,0.08374119196721244,-0.1549998605875064,5.67419649
-0.19352076331136214,0.03836777637084084,-0.151675064392714,5.679329117
-0.19262598329422256,0.06045271613450605,-0.14949094583647424,5.684197233
-0.19859535573553494,0.04103052137981626,-0.14803783357575073,5.689044285
-0.19525250482241274,0.055314512790280004,-0.14781903030426005,5.694144321
-0.1718125180787557,0.051005867913751946,-0.14826275446585643,5.699583121
-0.1772196150061342,0.052092573759698266,-0.14952726474929995,5.704323732
-0.17482123336945934,0.01728264267656433,-0.15169951414196878,5.709437665
-0.22307473833008215,0.06116942924847073,-0.15403413775013988,5.714741507
-0.2152248349811109,0.0415734429776201,-0.15672111512242612,5.719550975
-0.2106895201068164,0.04414766049341156,-0.15899840740858023,5.72524895
-0.2082890212256875,0.04080937575405494,-0.16080032370575537,5.729869243
-0.20656889818472166,0.025989129403421855,-0.1619005976954178,5.734970124
-0.1894142289753821,0.04794660828125347,-0.1618247539527227,5.740460546
-0.1788800367116408,0.062224368420224045,-0.16170515879106576,5.745135831
-0.18553933526856234,0.034061335641692794,-0.16066323673545302,5.750624674
-0.2528433713937969,0.06242235957795833,-0.15949244751628905,5.755545058
-0.20823116963422875,0.04609609057105225,-0.15792847406106267,5.760286524
-0.2102776646471422,0.02318740836353761,-0.15601762091504057,5.76607823
-0.21369534555767392,0.012182732465357393,-0.15472124463139403,5.770959522
-0.22311982042290038,0.04890512195511384,-0.15259759578563062,5.776116767
-0.20720394250767335,0.05121712051284764,-0.15083631729109823,5.781803474
-0.20896855668092829,0.06192763365724326,-0.14976065183926565,5.786921409
-0.1966727704934258,0.050138404793575855,-0.1490185889327971,5.792500803
-0.25701859515061243,-0.004419576130661532,-0.14836124506751702,5.796902909
-0.21753182111467678,0.049199973894209326,-0.14782572479858044,5.802008134
-0.1944528967897911,0.050784560629450325,-0.14784085796738414,5.807062234
-0.24842392389682005,0.03006087914523199,-0.14835788619207776,5.811842794
-0.25169237913845083,0.03092664838188502,-0.14871090134767478,5.817413602
-0.23139740237626324,0.033228444303772066,-0.14982610004253152,5.822931837
-0.22955603484899442,0.06044610317655767,-0.15032883912693337,5.827682672
-0.21110065952049198,0.010417401090550015,-0.15095091795274562,5.833076796
-0.22323443678109184,0.02625316176998043,-0.1506590267013388,5.838102986
-0.23639341314565365,-0.001284289343860108,-0.14997538907885974,5.84272719
-0.2001478835660585,0.059553546627550996,-0.14924930384754187,5.847916644
-0.22871187331205042,0.05104812190984442,-0.14794359794949039,5.853119191
-0.24908604960649114,0.03697378690824717,-0.14770412097381524,5.85786146
-0.2264261020915458,0.03656005673444332,-0.146260981501822,5.862658721
-0.24116239430207406,0.033957518886823544,-0.14524011638747605,5.867684178
-0.2187331273162516,0.0015655771184691497,-0.14422235873430864,5.872477594
-0.2273771659637505,0.019275004677615462,-0.14310872802850272,5.877125949
-0.22993243442322273,0.03997534919638013,-0.14227594123142095,5.882989511
-0.2584813964915512,0.051364408786944774,-0.1422299841412248,5.887963704
-0.26090937798840486,0.0394954220235406,-0.14151419286684866,5.892737994
-0.23953431242516735,0.04335593554649503,-0.1418758092603081,5.89793303
-0.22386857987965383,0.043545516953627475,-0.1420275060386557,5.903506308
-0.21766257732090236,0.045491689584543,-0.1423699502551506,5.9082804
-0.2127842010648558,0.036725658547857525,-0.1431159281782483,5.913220909
-0.22041756749041444,0.03363854298184325,-0.14409878612362723,5.917981942
-0.2301019424246784,0.030684449975042674,-0.14455694432298904,5.922836209
-0.21868655630564685,0.02286774839303604,-0.1451389450856922,5.930142198
-0.24621782148688778,0.037198560613699756,-0.1450542321371359,5.933078441
-0.19825132172385185,0.047659514839949325,-0.14439882955802305,5.938381036
-0.26818785813435164,0.037788685277638644,-0.14380086009107407,5.943328091
-0.22268467593849442,0.023835636926441764,-0.14221599417231545,5.948744917
-0.24672061022721586,0.0014289985454576312,-0.14106701185233592,5.953408358
-0.22708583698305088,0.04688720518448839,-0.1395525463984855,5.95972506
-0.24030558463463383,0.010626759663123101,-0.13790461015885078,5.965658407
-0.2566098447620845,0.03659704791960798,-0.1364124051709655,5.969797994
-0.23150556282867257,0.022340417941503987,-0.13518048254142018,5.974522364
-0.26712239119976405,0.03628084511898279,-0.13467347952702086,5.979510997
-0.21966453252111232,0.03635596524912945,-0.13371378841082965,5.98433943
-0.2661053878740908,0.04483396507665789,-0.1334296151981248,5.989124014
-0.23551368543359139,0.060762120598355424,-0.13311648373934948,5.994017051
-0.26368518279325603,0.0396205888279485,-0.133496167641041,5.998690162
-0.26007998584893766,0.026755981344707424,-0.1340285134574754,6.003997676
-0.22733193409538086,-0.0010596375752287938,-0.13495686135605506,6.009237363
-0.27602186016597924,0.021708509338626884,-0.13583157876382862,6.014521906
-0.26360719864205967,0.01592644432859605,-0.13672963913055614,6.01918539
-0.2868785452380421,0.04745315815784297,-0.13748090019821607,6.024469097
-0.24895034704417462,0.0384726582959938,-0.1382716514223203,6.029024413
-0.22977422852044144,0.014124179836537727,-0.1388157023770431,6.033915669
-0.24575889926706684,0.05045478484125786,-0.1383707012077075,6.038976374
-0.263712170816761,0.0160820144831229,-0.13743272404928888,6.045407723
-0.2664132732689903,0.058348039130016224,-0.13608826368712784,6.0486281
-0.2580170021357133,0.022964233268137856,-0.1350850931500334,6.053727547
-0.22743153519556786,0.015445162970612202,-0.13368297732881476,6.05850625
-0.23897425270425648,0.04925272987221934,-0.13199658972557643,6.063452117
-0.25707948172692324,0.044975113939572695,-0.13018317252418016,6.068407044
-0.24735806968097662,0.04357814242103636,-0.12882287538336473,6.073214821
-0.22961355810658082,0.03211482274802785,-0.12772388586399494,6.078106707
-0.23879326318107344,0.023905615350619202,-0.12663078277325956,6.083063858
-0.24664544467789243,0.01444978466999919,-0.12576545902683287,6.088215417
-0.2533831034780878,0.04905446500826155,-0.126017976077744,6.092958122
-0.23761795179810688,0.029505301718657173,-0.1255781759491659,6.097898779
-0.269358180451266,0.006464580942160236,-0.1262785644851931,6.102582656
-0.2283873219154918,0.04012033458998191,-0.12682824418427135,6.107491038
-0.2475451114855626,0.04045284002770007,-0.1277293181677546,6.112624692
-0.25588284209505774,0.022484189807578606,-0.12855440715955285,6.11760909
-0.2474321150549095,0.04015563951297808,-0.1295589485319486,6.123349424
-0.2248946339206534,0.029519971826859604,-0.13043227719241837,6.127640735
-0.25262112885848076,0.021451387438055414,-0.13133963604158314,6.133256552
-0.25032757449966303,0.010648843112744274,-0.13127976809537076,6.138376213
-0.2330011325028232,0.02408410512631114,-0.13106755414989277,6.143812924
-0.24989976855961532,0.019483328544325544,-0.1300597429884944,6.148880925
-0.25463260689098594,-0.007379090494589055,-0.12902209494862937,6.153483082
-0.24180427016713946,0.01931560765910421,-0.1274951897253972,6.158408114
-0.2431350254037821,0.026554770377043718,-0.12573372741226058,6.163330802
-0.262037423379708,0.037221409468331565,-0.12405650685519685,6.16832032
-0.2280908656570841,0.013344250415797775,-0.12297090360511134,6.173703951
-0.2692497000908769,0.004386778540413229,-0.12175369901762238,6.180379897
-0.22181418267231692,0.027507633327577472,-0.12084082998532457,6.185267659
-0.22923462966195154,0.023548485151296383,-0.11969534048058762,6.19011
-0.22833312993312768,0.005320620548361958,-0.11948582905222552,6.195010699
-0.233844502885107,0.010145332287630105,-0.11906702511799695,6.199680734
-0.24163905531976942,0.058080705646942135,-0.11970903159713604,6.204281624
-0.25115651416985363,0.06514380717330256,-0.11966459152246309,6.209291953
-0.23855088173863373,0.020005242743982635,-0.12040158482883326,6.214171756
-0.24322653927710017,0.005458035086766327,-0.12141279673178469,6.219773662
-0.23568938345084234,-0.008420051948146726,-0.12194060408767501,6.224615352
-0.22698143228219936,0.04036126619741778,-0.1229580865216801,6.230239825
-0.2463973525910785,0.03803124040553482,-0.1242364998793277,6.235336473
-0.20516518355689162,0.017069084752116014,-0.12432325224057172,6.240344726
-0.1894603310114072,0.023211932547142277,-0.12466808283764891,6.246482298
-0.2430178847754133,0.03100818750642003,-0.12456829343422496,6.250574059
-0.22301408582085452,0.03229672638712024,-0.12368141865797948,6.254639323
-0.18627811116539136,0.03125442910212844,-0.12336986538708589,6.259611097
-0.2075133171112614,-0.022288822681113693,-0.12229505493835426,6.264652189
-0.24344741070022463,0.016710598488816307,-0.12131218150868055,6.272166502
-0.2476135918364907,0.036089698890850466,-0.12010143658838836,6.275486987
-0.22091841310946456,0.02844930971763998,-0.11885848925281987,6.280469249
-0.2359911645811662,0.007699768934146277,-0.11814463757389838,6.28521346
-0.20658205528329918,0.04187431645204727,-0.1170290486089955,6.290581871
-0.21778052790404354,0.010088202983391092,-0.11649090956505345,6.295963876
-0.2207209134577732,0.0163437631558133,-0.1161331664868624,6.301599007
-0.21392562224893488,-0.00787631458704727,-0.11619937600326466,6.306438172
-0.2028515645847021,0.041253434671452226,-0.11579955937781655,6.310648695
-0.21201087491325388,0.029143932808513157,-0.11501012915938347,6.315838279
-0.2403706023564762,0.031827555993461404,-0.11421493012221566,6.320677355
-0.19829108130583503,0.037491191388181806,-0.11358861173802834,6.325297209
-0.22011169118552582,0.04709224679884125,-0.11262518066029306,6.330335237
-0.1912816162989535,0.022608434821395122,-0.11219566640328943,6.336503387
-0.2047976190084613,0.018735532961819068,-0.11194952744005529,6.34143878
-0.18209080122818883,0.016849109107231214,-0.11131441606025727,6.345911593
-0.2016714648705458,0.04058763675007673,-0.11086650838095291,6.350917551
-0.18055357462475682,0.05533368636351643,-0.11115659729253262,6.356083765
-0.17175595546840647,-0.01085258509200087,-0.11123254200663583,6.360927072
-0.2098915461511751,0.010541708628152579,-0.11121015057694561,6.365397693
-0.2177832808668415,0.029332539054338573,-0.11151009852469089,6.370117009
-0.17122726900888355,0.02293432795077477,-0.1122207884366586,6.374831312
-0.19984588837258654,0.0005772053397528482,-0.1126776963081418,6.379941356
-0.19836616187415326,-0.0017508302143185335,-0.11267815193796468,6.385004055
-0.15765483541955475,0.025788829280696823,-0.1132986994603559,6.389459295
-0.18727540238590118,0.01205071236929491,-0.11348498008268752,6.394488663
-0.18840663830382645,0.009662572827750824,-0.11403861213478797,6.399479516
-0.14890754184356222,-0.007287294667020286,-0.11411615285126903,6.404326416
-0.19650409320477008,0.03189719585903678,-0.11364044904542142,6.409378008
-0.19471734690728332,-0.0006366366592115771,-0.11332436123295178,6.415102772
-0.16581750936305534,-0.004352005085145463,-0.11230893571775762,6.419360352
-0.17837757347308833,0.011848583795424111,-0.11113409410282682,6.424151815
-0.164126694296944,0.01765429663957722,-0.1098934991534741,6.430009132
-0.15016653768328664,-0.002436149914934547,-0.10782529177503626,6.434451384
-0.14446690313207955,-0.0006948515644479222,-0.1070365687106658,6.439336847
-0.2027337520961402,-0.0176777986556805,-0.10538380035486268,6.444926538
-0.17524080473537373,0.01378878073900677,-0.10480432934371534,6.44964474
-0.17497080352302327,0.024490589438062385,-0.10360635059364166,6.4547514
-0.15897015912672346,0.007744746828039583,-0.10323134364405025,6.459957763
-0.14901204543171337,0.007024830715593214,-0.10325300334721908,6.46449904
-0.13756749459746967,0.020811438769040916,-0.10323047949414271,6.469444016
-0.14311561501635678,0.028767184459778945,-0.10364977018055949,6.476437592
-0.16497125056506395,-0.016850685527254848,-0.10449836974351712,6.481973199
-0.16709426317510925,-0.013918543899344646,-0.10473392828729375,6.486486333
-0.12891335466231943,-0.004895062572576448,-0.1056614204126349,6.491205946
-0.13471322004921468,-0.011603645135368386,-0.10636290767923602,6.496166233
-0.14316100285147385,0.006041968197016759,-0.10702628006640649,6.500850407
-0.09838016490660768,0.015101882065913917,-0.10805019854425651,6.505882839
-0.140974672166346,-0.001568422443794527,-0.10878057630181638,6.510387764
-0.1138159609797691,0.036443781536289466,-0.10837991856031966,6.515308497
-0.12977020736784364,0.018252459922154716,-0.10778725629212446,6.520218148
-0.16361624736100502,0.01998355355602724,-0.10667667351814185,6.525056905
-0.10903861055024212,-0.0073236362319588095,-0.10544738741464964,6.529925287
-0.1186612536244036,-0.0010438968271424733,-0.10452262385482498,6.534705579
-0.09736123835245443,0.051149638402106484,-0.10279250181403811,6.53968602
-0.1456496928143321,0.02463843417060628,-0.10197295270952002,6.544545637
-0.12080030051137107,0.0026451074244547707,-0.10045271077574451,6.549470633
-0.1504647646739282,0.02126504306004075,-0.09904351020170009,6.554334812
-0.11661674611713779,0.004109199155680332,-0.09837184613312845,6.559245463
-0.13072119878430427,0.0045997648069535865,-0.09767423454621002,6.564302737
-0.11685252669010698,-0.009827269952601388,-0.09777329167680986,6.569167633
-0.10303841000560218,-0.015150958192786482,-0.0976845732995683,6.574264431
-0.08723914895279235,0.009230415578888233,-0.0984111901280916,6.578972472
-0.08185458936652373,0.03621605114696291,-0.09844258247547544,6.583982743
-0.10170154604475289,-0.009262908983146663,-0.09911023900705902,6.588966008
-0.09309191925813576,0.01583139628253203,-0.10011534291907724,6.59375376
-0.07791600207023891,0.012390414455898103,-0.10108205365493507,6.598669007
-0.0786211045574885,-0.0009713924446624108,-0.10172755840635894,6.603943674
-0.08399082224562338,0.008724851729782511,-0.10216392015901457,6.610500278
-0.09876593815524914,0.021602291359345452,-0.10252475455531401,6.622198666
-0.060483548414742745,0.025166775047863,-0.10176279127021766,6.626035686
-0.09119031673613565,0.02114032095024157,-0.10078647442672176,6.630934091
-0.06881406648119441,0.014537767763210255,-0.09962084297220498,6.636278606
0.0667708517292642,-0.011736477523867738,-0.09831250979273742,6.641922156
-0.05206492413036591,0.034707839527261905,-0.09646523317799283,6.649064265
-0.04531057182563975,0.006939679209818903,-0.09575378294320383,6.651362052
-0.06838973225351508,-0.011588001602793985,-0.09396955820315474,6.656350664
-0.08291358082404003,0.028793181717676662,-0.09321996777904015,6.661337464
-0.06880882447035039,0.03669332455440304,-0.09265931023376935,6.666695819
-0.04960891901502418,-0.027456765784356536,-0.09233679474210806,6.671442607
-0.031157731179443995,0.0020288459579217884,-0.09214359200822243,6.676695282
-0.03834397529000225,0.03557240598973637,-0.09259064783381449,6.681202672
-0.0021675396613759015,0.018091297988453783,-0.09295638310769826,6.68622963
-0.015403178914447872,0.006579929105017394,-0.09384762204906703,6.691370335
-0.018741321406619688,0.0026057964897025446,-0.09438899207157335,6.69652792
-0.038365787986615746,0.0110174485456701,-0.09545661335507476,6.701353572
-0.046316077224961824,0.012521597589284967,-0.09611678193921877,6.706276448
-0.011327125034178936,0.032884268374627275,-0.09682625163937729,6.713303374
-0.01593394360784217,-0.004281780546860662,-0.0972105533749809,6.716506118
0.0117862877236857,0.02561062947899494,-0.09678507668740656,6.721496556
-0.03259105927189877,-0.008736590948365137,-0.09654269856044541,6.726438641
-0.03355923853128506,0.029686239768659382,-0.09590314764572215,6.731437923
-0.016108823659844236,0.021794455067559178,-0.09475487437644765,6.736490566
0.013329250170600307,0.023139221221332648,-0.0937221935011572,6.741485006
0.003203918551764831,0.0028667545397546117,-0.09251715377498737,6.747521325
0.011634485207009826,0.004013104301344369,-0.09103580833407111,6.751462216
0.004128884601518382,-0.004031887150621343,-0.09047786160831194,6.756280259
0.02982001467553323,-0.0074356552648739156,-0.08916479810326072,6.761452676
-0.018298815031579374,-0.0013265965784517286,-0.088423056349246,6.76633926
-0.02336929392479218,0.04273327554199382,-0.08841605286102905,6.771259913
0.04598735276194882,-0.018201122585506907,-0.08791782874021714,6.776221633
0.04736252455257804,-0.004502161665817385,-0.08787448471494762,6.781349624
0.01685659026835274,-0.010715762770634737,-0.08841729234833667,6.786259804
0.01363271163324613,0.00738726140774453,-0.08879481212451926,6.791113076
0.032745434618467156,0.0242803262798702,-0.08923384287806098,6.796145375
0.030071089571929412,0.00714539555617543,-0.09023980133982744,6.801111274
0.016324282602456434,0.03821250750273189,-0.09069674593365927,6.806044311
0.03252677621934104,0.01594108127620224,-0.0914060587095517,6.811123729
0.019649381391552204,0.015811792746394507,-0.09191931504842195,6.815946176
0.034622385672786325,-0.0016361149046880252,-0.0918822416939749,6.820863973
0.007916744368717768,-0.0054491208236978495,-0.09120808216728875,6.825747922
0.013092003637430703,0.02355813909902589,-0.09073592165777208,6.830693292
0.04430034881259579,0.038480607781364265,-0.09019069652413403,6.83582132
0.04622322454925049,0.023477049678366432,-0.08887116675949658,6.840562672
0.046381648590676526,-0.001849687070650913,-0.08780259393223513,6.845711157
0.0947976287275169,0.022366669056395234,-0.08648106755551338,6.850547781
0.08450521803131057,0.018900037517234455,-0.08598909605673019,6.85673353
0.057254918108674044,-0.00971152946229437,-0.08506784710414834,6.860583938
0.07602497187595364,0.01447666166830769,-0.08430870389631578,6.865557977
0.06542983407433868,0.026284327668278155,-0.08404307149197622,6.8705941
0.058888476195152605,-0.033228637478437004,-0.08390038199365005,6.875528263
0.04315289696675147,-0.014455929546382893,-0.08403018688538548,6.880538004
0.07560320277643841,-0.007623205919482193,-0.0838189271765709,6.885359906
0.06387570182532204,0.00829509852933169,-0.0839851426762632,6.89034202
0.10426045044871085,-0.014672271695829537,-0.08429643083782402,6.895391832
0.06155458988332817,0.037892310123331156,-0.08523287280559991,6.900854953
0.04086017180037758,0.012461151708971314,-0.08574177595459134,6.905375604
0.047143437401695146,0.000984556248344634,-0.08596041119523597,6.910515337
0.07477683012111376,-0.0044475780438239625,-0.08694590221435965,6.91628931
0.031370791208925414,0.0455005449730337,-0.08674559762570645,6.92061784
0.031212719417975363,0.018748170860470426,-0.08674902834115274,6.925599768
0.07201987841744559,0.03262978290192224,-0.0864226718434615,6.930577729
0.0682155037006113,0.016917407629080367,-0.08542179722823613,6.935486251
0.07594549408159924,0.01963867642058982,-0.08458290080964131,6.940568595
0.03692748881223525,0.03792935882448008,-0.08338653851647872,6.945877575
0.06304293465376942,0.024913800356108996,-0.0825980218881693,6.950681762
0.037966253393104624,0.027373839889920787,-0.08150522636889619,6.955541381
0.001799369560253422,0.007005256897609889,-0.080725121450816,6.960588747
0.03964174554015346,0.032943238517615075,-0.08003459860379664,6.965545119
0.0132202383179379,0.012361688527752894,-0.08022645318725165,6.970590212
0.015333909011173756,0.025154337989114012,-0.0794508082661067,6.976464785
-0.00022446003761917958,0.009690561441948405,-0.07941490803043026,6.981193273
0.0008848908086723038,0.02552028511581286,-0.07943796033402192,6.986183976
0.09027560304731641,0.02805854927565784,-0.0794117118833903,6.991043664
0.08710347705888846,0.03664942627211748,-0.08038835941185875,6.996357908
0.04646613557060912,0.002817510416209981,-0.0807089676362805,7.001045955
0.0802148967171604,0.028588358515077256,-0.08111834564968383,7.005992209
0.09378370839264999,0.03779064044423831,-0.08187567152600514,7.01100022
0.07474582628390403,-0.005428171609217556,-0.08247964911240425,7.01611515
0.04657290827467858,0.013067931228142048,-0.0824261720923098,7.02129625
0.08296861162260401,0.008831604833984675,-0.08242600037853022,7.026190918
0.09842206584611539,0.03472860784044299,-0.08212265710138625,7.032138086
0.10662719739474988,0.02573193684289032,-0.08134357809797906,7.03666505
0.10656803816875138,0.009247718104709481,-0.08051713291345872,7.041889742
0.09574478475177305,0.0639356654313989,-0.07988928311548953,7.047360469
0.10643731613638396,0.022463951951292967,-0.07860549788491818,7.053946619
0.1005223336213772,0.015496291709559845,-0.07802018217079883,7.056549857
0.048303695008862224,-0.011022046857265932,-0.07664855782221329,7.061416354
0.07442627031329248,0.020328259620751722,-0.07622173190415446,7.066355764
0.06847919501804392,0.020145762624245642,-0.07569140236642492,7.071423006
0.07990518734241918,-0.003387860160681093,-0.07541963974072213,7.076283357
0.08347159192393216,0.014405901676408109,-0.07523752357976717,7.081183177
0.10922254343881456,-0.014257988110719398,-0.07521102077246192,7.087450133
0.0926455399595652,0.01459121988400883,-0.07566266018571946,7.091059421
0.10671210061003367,0.052000253110039196,-0.0756959095491217,7.096047516
0.10648015533447484,-0.006343818953535865,-0.07648430566143935,7.101079531
0.10465550722707478,0.038742962580698176,-0.07678791040511652,7.106024722
0.14892125135847872,0.011303333305029646,-0.07768069352773983,7.110935774
0.11979162114232983,0.034850636758686084,-0.07826044914477454,7.115942182
0.10436003493191202,0.012807672823073843,-0.07813633230186412,7.121277532
0.14561817468708566,0.04661821174165626,-0.07817511034547023,7.125820285
0.11338638395471178,-0.008664075830719643,-0.07800150928787913,7.130973708
0.12223938885090949,0.005641617747615486,-0.07808562135781313,7.136021232
0.1447564361158599,0.03352330490572858,-0.07718885749087956,7.141103245
0.08851409541465924,0.029601422677178822,-0.07637014155591898,7.14620497
0.09731995371447759,0.05004717086975213,-0.07511596617475186,7.151054601
0.14561482049361726,0.028388745205275675,-0.074088476641149,7.156025256
0.1136277091347487,0.0001238552935274185,-0.07345812085709955,7.161253739
0.11426872303706934,0.0027651959382892213,-0.07290771181020742,7.166047019
0.16521438009673553,-0.014527777314866,-0.07201938463904475,7.17108557
0.1643065438654131,0.004476825776113377,-0.07158504527488292,7.176078089
0.1308422776812372,0.048970571124196005,-0.07149669221372462,7.180999362
0.0870332795035681,0.04102963441742543,-0.07160737691327713,7.186003609
0.15149568733430335,0.03844249551048591,-0.07180908864525394,7.190939189
0.10775180678330085,0.009835315565342853,-0.07155922610703194,7.195920478
0.18518312938403994,-0.00018936929795709134,-0.07241248208406476,7.200884277
0.13890615341845325,0.057090839169342274,-0.07266315876476304,7.20596534
0.16060873567129902,-0.005826503518649644,-0.07346147447669715,7.211128518
0.14116822089409772,0.015422254293817023,-0.07358144011068099,7.215974941
0.12763270003036556,0.03218482420558221,-0.07417956371239169,7.22078973
0.13816694112813702,0.015218164878996689,-0.07454265436456128,7.225961019
0.12535615974136122,-0.03771933389058356,-0.0743740399915957,7.230914711
0.18217075208734265,0.020368524996639954,-0.07383667123721326,7.235822384
0.13760340089585169,0.008872294737309536,-0.07339284108698885,7.240737944
0.15247622311723802,0.0071869492069608736,-0.07257331883179989,7.24564898
0.16823687742301613,-0.00787336134505711,-0.07195160840893086,7.250573334
0.16478644698848222,0.03167977661859411,-0.0705527476253232,7.256641985
0.17430882940998593,0.05067306667680936,-0.0702602263104656,7.26065042
0.0960013170594332,-0.00258373399225339,-0.06938423299126577,7.26551272
0.1525217493824665,-0.04036191001002867,-0.06854199910544133,7.270555993
0.14423368237528217,0.10060891918051852,-0.06810802601220557,7.275550335
0.18614930847096947,0.014811656688356146,-0.06776529431212917,7.28057022
0.09888065939891211,0.02989567254944015,-0.06788600161121715,7.285309004
0.20203441429572802,-0.08737336331199284,-0.06758061368445097,7.290278736
0.11340476693032718,0.10793473385673374,-0.06809654193695377,7.295309209
0.1619140851023683,-0.06382582883611107,-0.0684504175038051,7.300708535
0.18996851796262332,0.10931381516441471,-0.06872444518755581,7.3053382
0.140874799846188,-0.01803721522814093,-0.06964209397566559,7.310303704
0.19882624424565623,0.08223083891990776,-0.0697668233132593,7.315269351
0.1600421055731998,-0.05406766187075776,-0.07031122061130839,7.320413685
0.10163666037872172,0.08540570717508005,-0.07044988366882524,7.32573617
0.14586432772205885,0.025194602485775208,-0.07079755505001158,7.33054755
0.20145988567629358,-0.0054367989845641555,-0.07064078615121525,7.335607689
0.15160772372144013,0.008578798280067468,-0.06942127730762775,7.340531572
0.21135432700779277,0.03420999921300674,-0.06944376947157241,7.345525125
0.13147476844436193,0.04958868911431951,-0.06825028848100476,7.350571355
0.1844317441466664,0.02209486665096388,-0.06712006323598949,7.355552967
0.1747217731804423,-0.03524475142119995,-0.06659427171509649,7.360661375
0.16030266854229114,0.054565344418560716,-0.06554777496516527,7.365724326
0.25183546795567846,-0.021923175962307424,-0.0650281170891902,7.370632579
0.11006622897640743,0.04302209540757138,-0.0647544522466385,7.376311577
0.19555454920556647,0.08201557111437367,-0.06441658656337061,7.381540732
0.08021587983611833,-0.014671199573347274,-0.06421589071920489,7.38605135
0.2402490419077766,-0.009857574948657518,-0.0639667035353774,7.391015276
0.06512913378849877,0.03287141463714936,-0.06487941990418851,7.396180634
0.1330588485381161,0.06056580847405149,-0.06450854763746999,7.401393209
0.27735009319728277,-0.01310986441556297,-0.06521607360003448,7.406346962
0.11444311780235505,-0.010243528896294657,-0.06548315901469165,7.411660025
0.18696056936334346,-0.009266343824570599,-0.06616779505103328,7.416860062
0.14108555114816246,-0.003087252498694966,-0.066556110297815,7.422044607
0.22261749229945813,0.02749422959981899,-0.06674789781753256,7.428064108
0.16013490995930799,0.026574433891536124,-0.06702880016881614,7.432268837
0.1920883830135798,0.014386412495560464,-0.06693436015300754,7.437584112
0.1684505850930524,0.035328672025279666,-0.06609848823942184,7.44232604
0.15787270402855522,0.02294814000930948,-0.06574395641961991,7.447775499
0.16838986188408772,0.041320784014723985,-0.06503223301710338,7.452370603
0.1636558759940048,0.03127916481611215,-0.06429477365433323,7.457718096
0.1643161950102188,0.016046559789181437,-0.06369899662049971,7.462403293
0.1807864828471858,0.0258550733763337,-0.06262725791278459,7.467350164
0.1878693082831711,0.019931989430069158,-0.06252243903037542,7.472721553
0.1708364374474001,0.018112663486219018,-0.06150253634960432,7.478074074
0.20234331371964792,0.015174277778141744,-0.06127740956495623,7.482727053
0.1777297074956195,4.6271188255885345e-05,-0.06122931432852712,7.487507178
0.1872813824061483,0.019992820020297685,-0.06080542385365211,7.492426136
0.17492947533534736,-0.0025940060182198655,-0.060634707668672114,7.497826303
0.18511641112164545,0.032894133446027485,-0.06091816744293047,7.502938991
0.22293910973941528,-0.016416242430336854,-0.061646678597502134,7.507924874
0.21021361137858957,-0.006813240589538501,-0.06212944209774735,7.512724445
0.22805613780754275,0.00944606492763746,-0.062293182737674146,7.517750331
0.20445117617599223,-0.026780202833555193,-0.06270373377584225,7.522540987
0.23141057337601173,0.011707653654369397,-0.06334515783879713,7.527601236
0.23074279466464712,0.0028205088699566738,-0.06311080066083696,7.532476088
0.26795694683060195,-0.00839980613514197,-0.06330237961594695,7.537303865
0.2511628951430606,-0.0002931301398584902,-0.0629278793206542,7.542532037
0.2451680603242957,0.015865822430303853,-0.06241223842980854,7.547436007
0.289923353250805,-0.018739970560143118,-0.06180468183214566,7.552371878
0.28363610488900853,-0.02479045239588166,-0.06094843891896862,7.557297495
0.30159096080540815,-0.050063761175626,-0.0602614650595371,7.562244537
0.31288345848775817,0.0019709280517114063,-0.059699506987409744,7.567240528
0.26714080710639465,-0.046772149861659354,-0.05851500588553627,7.572221852
0.3366160290804725,-0.03675329473739742,-0.05807486545049652,7.577178933
0.30778853944771944,-0.01979254352876856,-0.05808532973646991,7.582605025
0.3127644889895978,-0.03375523721056674,-0.057717070172136876,7.58825134
0.26781590197787825,0.04851176116032206,-0.05750704745400558,7.592455228
0.24500598476801505,0.1277463005745435,-0.05829407260724679,7.598184545
0.25461143467737346,0.09423744840064512,-0.05950273585827563,7.602310845
0.3733439517813407,-0.06765075843977544,-0.06051441626120278,7.607439311
0.2210326026056287,-0.09513206207360544,-0.061379108649582424,7.613051606
0.2038400175479231,-0.07756148906424723,-0.06134451736069589,7.617794202
0.28779475274172484,0.022942721321174996,-0.06080168246667402,7.62244076
0.30932042000080096,0.033033015956649314,-0.0607210406454795,7.62762264
0.29252996472049453,-0.005292279116689721,-0.060407833671029365,7.632704914
0.23148997359532492,0.006165701780260874,-0.059629577575720766,7.637356276
0.291891305176852,0.043950897857400646,-0.05874470757475139,7.642578582
0.2204924559026223,0.019006186683854093,-0.057646664514323584,7.648415848
0.24851594280410366,0.026397282141317355,-0.05698323957582652,7.652855464
0.2169466674025067,0.023234068838103097,-0.05587576805669916,7.658215949
0.21917203083174794,0.01453995706910157,-0.05510185045189506,7.663295063
0.19579399880100556,0.01503252791703534,-0.05446049140929267,7.668156509
0.20345091171642313,0.006905085718629085,-0.05389900286660581,7.67313085
0.15035490458036957,0.01928655744102095,-0.05367270275035093,7.678101629
0.15097888148918379,0.022246533655565445,-0.0536354013692336,7.683041274
0.15856906077436467,0.0166213912571868,-0.05352490414843838,7.688112695
0.13277262845317694,0.03634266647206851,-0.05382204699600844,7.69292178
0.14751691374572842,0.01270548351310253,-0.05433887876548604,7.698103188
0.13443479385170712,0.027707401610445437,-0.054765670410568006,7.702938819
0.11032501728548261,0.03644087791738957,-0.05546848177683956,7.707966806
0.11802505985173602,0.032767893406855486,-0.056102649876191436,7.713599848
0.09616575663547217,0.03776432366224612,-0.056874307582841455,7.718368223
0.09896666895656568,0.027315288927861458,-0.057227408081011434,7.723550075
0.053271957590904515,0.042310138513983,-0.05798295666005976,7.728669937
0.06968929786835737,0.026025498909611682,-0.05818985921043096,7.733678067
0.05985681130533601,0.058738257164054515,-0.058431943729492446,7.738900641
0.04712713562939281,0.008018626129299114,-0.05736505364890634,7.743425911
0.037560369367710844,0.02621227806822448,-0.057226769029860715,7.748393193
0.037333640972434926,0.03939498728527264,-0.056329114446160504,7.753438601
0.0403318746733634,0.013458403034536562,-0.055405233188820735,7.759664532
0.0015771839803291922,0.02275823142435391,-0.054702866910563856,7.763234604
-0.03133050925448328,0.039568663638185744,-0.05387282729682034,7.770929468
-0.03878066738309418,0.06275030043274032,-0.05304471199326468,7.773797831
0.06750879631275959,-0.07393395900617589,-0.052118666250422684,7.77933928
0.003226832480219703,-0.0788874448387049,-0.050845148165692744,7.783105131
0.09660340727734226,0.03854951206943402,-0.05007273279162376,7.788523167
0.11725001738539773,0.05181058887111084,-0.0492612005809021,7.793461746
0.03520443088445185,0.1271919097396816,-0.04865915677671095,7.799134963
0.02753726130459618,0.06371730142554699,-0.049746847933642216,7.805258067
-0.035929785722620136,-0.012007753900185934,-0.05036867631447628,7.808185335
-0.011525774784516926,0.015072854708274429,-0.0509058943455334,7.813223467
0.001520387016824585,-0.006202207201562549,-0.05214080230478814,7.819723757
0.010549538832262558,0.008710935193425348,-0.053216991582426966,7.823289479
0.026437623181931116,-0.009566817355935505,-0.05385605678645849,7.82814906
0.08478076469580781,-0.021578814719225403,-0.05499209657464733,7.83354107
0.04624305725936255,0.036579416092451786,-0.05564891374390875,7.838182409
0.07432976727001689,-0.011936600948697288,-0.05584653675418996,7.843218782
0.14983028657509223,0.006216748198399662,-0.05568196371777957,7.848843227
0.12019504549260122,-0.0028152031853897917,-0.05582018222366933,7.853281657
0.12650155218383125,0.004620448389599503,-0.055079643401980696,7.858140869
0.1383498267404334,0.024173478429981694,-0.05480483048222758,7.863113448
0.12853917153139174,-0.039303626972107195,-0.053525604769363765,7.86819149
0.14834464036793552,-0.009695006648385796,-0.0529061516426312,7.873546183
0.12042216033250867,0.025975155728550182,-0.05192041206379405,7.87954678
0.13363496052923718,0.0146183199558366,-0.05127751116566251,7.883441765
0.14421333244473508,-0.021575145971842118,-0.05061451722575523,7.888408213
0.16368256122575894,-0.027650131804501793,-0.04972590621507219,7.893369803
0.1660618434173215,0.05738522454611955,-0.049529503645063463,7.898519953
0.10613433212312799,0.026887005960716272,-0.04916208145428655,7.903281272
6.814915476311103,-0.002475229662489085,-0.06148338639272423,7.907960306
0.11002274009391665,0.013931429320331506,-0.0796263236212372,7.912904667
0.06265045457136244,0.011497720224214959,-0.10294545194419616,7.918148449
0.009450916254304366,0.0176626830898858,-0.12899839183305264,7.923156622
0.09449994938575938,-0.0036899267035980458,-0.15680225006414236,7.928137774
0.06131547034492889,-0.029481070470383168,-0.18356331202122925,7.933190557
5.768332679262156,-0.027521341163464365,-0.20768838770380565,7.93945202
1.355380533181957,-0.002272982929533405,-0.228009595947224,7.943358611
-0.03599717867263498,0.050603685321034576,-0.24412381228854413,7.948565738
0.033790056815842025,-0.00677126880111021,-0.2544147283653962,7.953506118
0.06692209700419768,0.0005115487847232609,-0.2584923186004815,7.958740596
0.04139289881026686,0.0004696888831921195,-0.25733230192171896,7.963884227
0.06172878872271505,0.011524223333728783,-0.25202700512591275,7.96852005
2.917716111116564,0.022785725637351262,-0.22292264300545395,7.981364386
0.001625949159205496,0.04451919030550304,-0.2105276317893202,7.984710645
-0.011892092615324198,-0.005630026132655408,-0.1943662328177397,7.989587372
0.024537485866843792,-0.006676917228604494,-0.17838083233389582,7.99451925
0.027403664874981554,-0.03490683754891624,-0.16454104127798902,7.99934018
0.038190919273545954,-0.01917487520036213,-0.15178179717833387,8.004468641
7.03364683432214,-0.02389082822195662,-0.14207310043421253,8.0092863
-0.0771400098576166,-0.04292829137036459,-0.13594919996635166,8.014689064
0.015641758262919095,-0.02524166624376572,-0.13301903871987375,8.019706807
0.07310633625438417,-0.010209021844718178,-0.13259474828448808,8.024539194
0.04263941864955906,-0.012193238628199906,-0.1366393383028765,8.029518127
0.04770256791696845,0.016840500660452968,-0.14175002043014287,8.034665432
0.012653660735368,-0.006587717155408113,-0.15000282881051488,8.039421215
6.971634576232098,-0.004760261121839183,-0.1588649641316936,8.044488402
-0.04602109148459993,-0.010474788317159717,-0.16881237465057877,8.049625339
-0.011412329997781221,-0.0420580657475188,-0.1778010328679578,8.054498015
0.021591966627117168,-0.028418985917576897,-0.1867335384130322,8.059732263
0.04440923307556951,-0.027571327576575877,-0.19465759504854277,8.064537978
0.041149018096999196,-0.02009198135218062,-0.20084002784963104,8.069587546
5.707871914700788,-0.024183801823798052,-0.20492298773393441,8.075729627
1.2607497591225592,-0.03937679712734785,-0.20736416006553968,8.07928234
-0.06426130520363556,-0.05746010682253469,-0.2076850951347266,8.084806084
-0.004109502954723942,-0.04511839102234531,-0.20593851448863898,8.089589241
0.018729576507616006,-0.0116628208770242,-0.20271693094157683,8.094906254
0.02940846296175017,-0.06208302758667985,-0.19845749127412635,8.099569313
0.0004879918768159047,-0.03865551833705555,-0.19395856031874184,8.104951216
6.805426236566168,-0.04257041302440172,-0.18781440756631534,8.110133638
0.11619901811994741,-0.04563711392433582,-0.1814700419958514,8.114709887
-0.023868334536390007,-0.017413092801156296,-0.1766192850493699,8.119647193
-0.012308934281192313,-0.0424391829554711,-0.17175614892140126,8.124726807
-0.0032694199870629322,-0.030170225148786117,-0.16811008677979794,8.129478838
0.01991276115549828,-0.04948965219627105,-0.16551076641819165,8.134967286
0.015260748558339188,-0.05116640493094561,-0.16356882155951516,8.141112155
8.727762098844414,-0.0023526169696909544,-0.16281220949528688,8.144495394
-0.07448768981053114,-0.07671078510073347,-0.1640023490302516,8.149427835
-0.02626242741382995,-0.03984792637448563,-0.16574181713230743,8.154964924
-0.0008814534794776485,-0.06263461162514217,-0.16757229623537787,8.159336197
0.008912897925831767,-0.05334653941252558,-0.17065519380113103,8.164537465
-0.0040383422392172175,-0.08898324387883924,-0.17389525213917512,8.169393554
0.012281873093450206,-0.02936761190485094,-0.17752483163656038,8.174442712
6.997486346121871,-0.04134366923311395,-0.18063215035073255,8.179352123
-0.08961981095694202,-0.04087648893609076,-0.18343257210326594,8.184715777
-0.03525636897627284,-0.046053382150845076,-0.18594512577735722,8.194437395
-0.012402930164604978,-0.043648325594051844,-0.18751365336986212,8.196717099
0.013572161839265875,-0.0465123018477597,-0.1889495955293494,8.199701129
-0.007080705178297928,-0.05796043173871345,-0.18946372428047542,8.204513169
-0.0003967492223950777,-0.07526953591382246,-0.18958805291718453,8.209593872
6.932365344110037,-0.052729278595977404,-0.18854957179035636,8.214490103
-0.12316629829303911,-0.06782312135317309,-0.18700763664094985,8.219523165
-0.05634759000479955,-0.06573504275549846,-0.18544495469657193,8.225986357
0.002057687027929479,-0.06192307684131334,-0.1834776155445524,8.229590018
-0.013356265096299932,-0.024657223159969162,-0.18199130064241398,8.235014917
0.004108294357634726,-0.0655551003591366,-0.1796904328389172,8.239707523
5.694278527432731,-0.07092617637900231,-0.1777636661364834,8.245831568
1.0071354961344652,-0.03298577883433511,-0.1756407449434921,8.250812599
-0.07470354604420422,-0.04494060220207556,-0.17521661989668574,8.254419929
-0.0383830688278418,-0.027733997719746953,-0.173872574694608,8.259488424
-0.03265623229597207,-0.08290586029502447,-0.1738365495360537,8.264492025
-0.03264752908095213,-0.06108488326586352,-0.1740652565991924,8.269894036
0.021781411307690814,-0.0884844775877887,-0.17447205376950053,8.275224927
6.801499627818494,-0.060582075812323985,-0.17486162720714038,8.279375978
0.09272097999269888,-0.07333910482938255,-0.17607969704144277,8.284646946
-0.04615013020738437,-0.03069762208694598,-0.1775070319349194,8.289405168
-0.05203235877450648,-0.07946615324836044,-0.17838492258215013,8.294539867
-0.022947317544323054,-0.04461781104453745,-0.17889088228711858,8.299417528
-0.013768515075840398,-0.04616936825470706,-0.18101355676628533,8.304317305
-0.0062649490126879615,-0.06760883950231364,-0.18118854203504667,8.309348976
6.9639460667113235,-0.04292243954694319,-0.1824266505788292,8.315327611
-0.1411851732615705,-0.11690342313660956,-0.1828042873840801,8.319457917
-0.06718361981304352,-0.0867559105246058,-0.18278472018117614,8.324340027
-0.006644351636035609,-0.04170064709162366,-0.1831720448151854,8.329725055
-0.046834702004694764,-0.09624125177890716,-0.18302426541004096,8.334514756
-0.004042388256932877,-0.07025782140558033,-0.18220264744696194,8.339691401
0.005542489733732971,-0.058922287294424974,-0.1819741233283725,8.344519102
6.967506186581837,-0.08490607430409756,-0.1809918337822909,8.350290189
-0.14961665669155963,-0.09104391592829693,-0.18083137972978297,8.354508724
-0.07559632827363819,-0.07727455000852698,-0.18000027202047822,8.359415064
-0.037776693234756215,-0.12351983858925482,-0.1794056881252104,8.364543781
0.002298324508891541,-0.05958268025279135,-0.17849269436060147,8.369387857
-0.07090109693528128,-0.08952535500871622,-0.17809634504933164,8.374427241
0.003172469768373931,-0.10455001685288638,-0.1778801062740641,8.382465289
6.934344827469983,-0.07913840302808381,-0.1775891208842029,8.384634813
-0.10724234411746564,-0.08828121484633926,-0.17767769941196923,8.389935504
-0.034435994777261544,-0.11883950244656938,-0.1777500653688349,8.395014941
-0.020711463130088727,-0.08454898621609633,-0.17842918905026875,8.400062996
-0.04000006417666971,-0.09812489532844067,-0.1783920088157689,8.40495435
-0.029567795600438818,-0.10566178233487157,-0.1784484203966476,8.409976284
5.653366414436444,-0.11392156395102399,-0.17879868577089883,8.415980072
1.2272118807806984,-0.07222294492224941,-0.17922908015917854,8.420136562
-0.12758504457863917,-0.12034654594912321,-0.17972379020471832,8.425843989
-0.031087474515032888,-0.125264668206264,-0.17971370252255622,8.430198421
-0.026919703083175452,-0.1371198641039615,-0.180753523769376,8.436130042
-0.01874076294321132,-0.11854689348531332,-0.1808811141492256,8.44055319
-0.048567277835061096,-0.11899849371888474,-0.18073687577229666,8.445683482
6.790064380697747,-0.0968114847892156,-0.18057510484173508,8.45144147
0.08116424173403865,-0.08377452422431617,-0.1808518686871118,8.455736483
-0.0766820649016442,-0.10165213404540305,-0.18091262985805664,8.460701932
-0.047722940443848845,-0.1307782469061179,-0.18053177449378924,8.465694497
-0.012839283526909502,-0.10058093360289105,-0.18041905156269686,8.470611645
-0.03588732327884313,-0.09451767949236893,-0.18055512111493502,8.475618181
-0.003315034848972536,-0.11823492821239154,-0.17974364008605373,8.480628124
6.947345071105814,-0.0935341170570862,-0.1793991767414321,8.485882969
